trial_index,participant_id,question_type,book_id,time_elapsed,character_name,question_id,response,title,character_type,character_gender,gender_group
3,P67578,activity,M66,182179,FROGGY,A1,played,FROGGY GOES TO BED,m,m,neutral
3,P67578,activity,M66,182179,FROGGY,A2,looked,FROGGY GOES TO BED,m,m,neutral
3,P67578,activity,M66,182179,FROGGY,A3,brushed,FROGGY GOES TO BED,m,m,neutral
3,P67578,activity,M66,182179,FROGGY,A4,hugged,FROGGY GOES TO BED,m,m,neutral
3,P67578,activity,M66,182179,FROGGY,A5,closed eyes,FROGGY GOES TO BED,m,m,neutral
4,P67578,description,M66,318026,FROGGY,D1,little ,FROGGY GOES TO BED,m,m,neutral
4,P67578,description,M66,318026,FROGGY,D2,tired,FROGGY GOES TO BED,m,m,neutral
4,P67578,description,M66,318026,FROGGY,D3,complainer,FROGGY GOES TO BED,m,m,neutral
4,P67578,description,M66,318026,FROGGY,D4,hungry,FROGGY GOES TO BED,m,m,neutral
4,P67578,description,M66,318026,FROGGY,D5,thirsty,FROGGY GOES TO BED,m,m,neutral
5,P67578,activity,M66,433772,MOTHER,A1,tuck him in ,FROGGY GOES TO BED,s,f,neutral
5,P67578,activity,M66,433772,MOTHER,A2,help him,FROGGY GOES TO BED,s,f,neutral
5,P67578,activity,M66,433772,MOTHER,A3,bathe him,FROGGY GOES TO BED,s,f,neutral
5,P67578,activity,M66,433772,MOTHER,A4,hugged him,FROGGY GOES TO BED,s,f,neutral
5,P67578,activity,M66,433772,MOTHER,A5,yawned at him,FROGGY GOES TO BED,s,f,neutral
6,P67578,description,M66,467477,MOTHER,D1,patient,FROGGY GOES TO BED,s,f,neutral
6,P67578,description,M66,467477,MOTHER,D2,kind ,FROGGY GOES TO BED,s,f,neutral
6,P67578,description,M66,467477,MOTHER,D3,loving ,FROGGY GOES TO BED,s,f,neutral
6,P67578,description,M66,467477,MOTHER,D4,adult,FROGGY GOES TO BED,s,f,neutral
6,P67578,description,M66,467477,MOTHER,D5,direct,FROGGY GOES TO BED,s,f,neutral
8,P67578,activity,M48,661234,SAM,A1,eat,GREEN EGGS AND HAM,m,m,neutral
8,P67578,activity,M48,661234,SAM,A2,like ,GREEN EGGS AND HAM,m,m,neutral
8,P67578,activity,M48,661234,SAM,A3,eat ,GREEN EGGS AND HAM,m,m,neutral
8,P67578,activity,M48,661234,SAM,A4,try eggs ,GREEN EGGS AND HAM,m,m,neutral
8,P67578,activity,M48,661234,SAM,A5,be same,GREEN EGGS AND HAM,m,m,neutral
9,P67578,description,M48,863278,SAM,D1,picky,GREEN EGGS AND HAM,m,m,neutral
9,P67578,description,M48,863278,SAM,D2,redundant,GREEN EGGS AND HAM,m,m,neutral
9,P67578,description,M48,863278,SAM,D3,classic,GREEN EGGS AND HAM,m,m,neutral
9,P67578,description,M48,863278,SAM,D4,questionable,GREEN EGGS AND HAM,m,m,neutral
9,P67578,description,M48,863278,SAM,D5,nice,GREEN EGGS AND HAM,m,m,neutral
11,P67578,activity,L217,905628,GRANDFATHER,A1,left,GRANDFATHER'S JOURNEY,m,m,male-biased
11,P67578,activity,L217,905628,GRANDFATHER,A2,didnt see,GRANDFATHER'S JOURNEY,m,m,male-biased
11,P67578,activity,L217,905628,GRANDFATHER,A3,explored,GRANDFATHER'S JOURNEY,m,m,male-biased
11,P67578,activity,L217,905628,GRANDFATHER,A4,traveled,GRANDFATHER'S JOURNEY,m,m,male-biased
11,P67578,activity,L217,905628,GRANDFATHER,A5,think,GRANDFATHER'S JOURNEY,m,m,male-biased
12,P67578,description,L217,940033,GRANDFATHER,D1,old,GRANDFATHER'S JOURNEY,m,m,male-biased
12,P67578,description,L217,940033,GRANDFATHER,D2,sweet,GRANDFATHER'S JOURNEY,m,m,male-biased
12,P67578,description,L217,940033,GRANDFATHER,D3,adventurer,GRANDFATHER'S JOURNEY,m,m,male-biased
12,P67578,description,L217,940033,GRANDFATHER,D4,reminiscent,GRANDFATHER'S JOURNEY,m,m,male-biased
12,P67578,description,L217,940033,GRANDFATHER,D5,wholesome,GRANDFATHER'S JOURNEY,m,m,male-biased
13,P67578,familiarity,NA,949495,NA,book_1,not familiar,NA,NA,NA,NA
13,P67578,familiarity,NA,949495,NA,book_2,familiar,NA,NA,NA,NA
13,P67578,familiarity,NA,949495,NA,book_3,not familiar,NA,NA,NA,NA
14,P67578,participant_gender,NA,954094,NA,gender,Female,NA,NA,NA,NA
3,P67600,activity,L198,1022607,MORTIMER,A1,shook his head,MORTIMER,m,m,male-biased
3,P67600,activity,L198,1022607,MORTIMER,A2,sang,MORTIMER,m,m,male-biased
4,P67600,description,L198,1039732,MORTIMER,D1,loud,MORTIMER,m,m,male-biased
4,P67600,description,L198,1039732,MORTIMER,D2,noisy,MORTIMER,m,m,male-biased
4,P67600,description,L198,1039732,MORTIMER,D3,trouble maker,MORTIMER,m,m,male-biased
5,P67600,activity,L198,1099306,MORTIMER'S MOTHER,A1,took Mortimer to bed,MORTIMER,s,f,male-biased
5,P67600,activity,L198,1099306,MORTIMER'S MOTHER,A2,opened the door to Mortimer room,MORTIMER,s,f,male-biased
5,P67600,activity,L198,1099306,MORTIMER'S MOTHER,A3,tell him to be quiet,MORTIMER,s,f,male-biased
6,P67600,description,L198,1112690,MORTIMER'S MOTHER,D1,irritated,MORTIMER,s,f,male-biased
6,P67600,description,L198,1112690,MORTIMER'S MOTHER,D2,annoyed,MORTIMER,s,f,male-biased
7,P67600,activity,L198,1169862,MORTIMER'S FATHER,A1,walked upstairs,MORTIMER,s,m,male-biased
7,P67600,activity,L198,1169862,MORTIMER'S FATHER,A2,yelled,MORTIMER,s,m,male-biased
7,P67600,activity,L198,1169862,MORTIMER'S FATHER,A3,fought with his other children,MORTIMER,s,m,male-biased
8,P67600,description,L198,1181863,MORTIMER'S FATHER,D1,irritated,MORTIMER,s,m,male-biased
8,P67600,description,L198,1181863,MORTIMER'S FATHER,D2,annoyed,MORTIMER,s,m,male-biased
8,P67600,description,L198,1181863,MORTIMER'S FATHER,D3,tired,MORTIMER,s,m,male-biased
10,P67600,activity,M13,1373369,HAROLD,A1,draw,HAROLD AND THE PURPLE CRAYON,m,m,male-biased
10,P67600,activity,M13,1373369,HAROLD,A2,fall,HAROLD AND THE PURPLE CRAYON,m,m,male-biased
10,P67600,activity,M13,1373369,HAROLD,A3,walk,HAROLD AND THE PURPLE CRAYON,m,m,male-biased
10,P67600,activity,M13,1373369,HAROLD,A4,sleep,HAROLD AND THE PURPLE CRAYON,m,m,male-biased
11,P67600,description,M13,1395066,HAROLD,D1,clever,HAROLD AND THE PURPLE CRAYON,m,m,male-biased
11,P67600,description,M13,1395066,HAROLD,D2,creative,HAROLD AND THE PURPLE CRAYON,m,m,male-biased
11,P67600,description,M13,1395066,HAROLD,D3,imaginative,HAROLD AND THE PURPLE CRAYON,m,m,male-biased
13,P67600,activity,M6,1608143,CORDUROY,A1,crawl,CORDUROY,m,m,neutral
13,P67600,activity,M6,1608143,CORDUROY,A2,blink,CORDUROY,m,m,neutral
13,P67600,activity,M6,1608143,CORDUROY,A3,climbed,CORDUROY,m,m,neutral
14,P67600,description,M6,1625369,CORDUROY,D1,sad,CORDUROY,m,m,neutral
14,P67600,description,M6,1625369,CORDUROY,D2,lonely,CORDUROY,m,m,neutral
14,P67600,description,M6,1625369,CORDUROY,D3,curious,CORDUROY,m,m,neutral
15,P67600,activity,M6,1671898,LISA,A1,shop,CORDUROY,s,f,neutral
15,P67600,activity,M6,1671898,LISA,A2,stares,CORDUROY,s,f,neutral
15,P67600,activity,M6,1671898,LISA,A3,sewed,CORDUROY,s,f,neutral
16,P67600,description,M6,1700777,LISA,D1,smart,CORDUROY,s,f,neutral
16,P67600,description,M6,1700777,LISA,D2,hardworking,CORDUROY,s,f,neutral
16,P67600,description,M6,1700777,LISA,D3,optimisic,CORDUROY,s,f,neutral
17,P67600,familiarity,NA,1741710,NA,book_1,not familiar,NA,NA,NA,NA
17,P67600,familiarity,NA,1741710,NA,book_2,familiar,NA,NA,NA,NA
17,P67600,familiarity,NA,1741710,NA,book_3,not familiar,NA,NA,NA,NA
18,P67600,participant_gender,NA,1745626,NA,gender,women,NA,NA,NA,NA
3,P67609,activity,L223,83843,MICKEY,A1,heard,IN THE NIGHT KITCHEN,m,m,neutral
3,P67609,activity,L223,83843,MICKEY,A2,shouted,IN THE NIGHT KITCHEN,m,m,neutral
3,P67609,activity,L223,83843,MICKEY,A3,fell,IN THE NIGHT KITCHEN,m,m,neutral
3,P67609,activity,L223,83843,MICKEY,A4,chanting,IN THE NIGHT KITCHEN,m,m,neutral
3,P67609,activity,L223,83843,MICKEY,A5,poked,IN THE NIGHT KITCHEN,m,m,neutral
4,P67609,description,L223,106573,MICKEY,D1,active,IN THE NIGHT KITCHEN,m,m,neutral
4,P67609,description,L223,106573,MICKEY,D2,energetic,IN THE NIGHT KITCHEN,m,m,neutral
6,P67609,activity,M67,157889,PINKALICIOUS,A1,dropping flowers,GOLDILICIOUS,m,f,female-biased
6,P67609,activity,M67,157889,PINKALICIOUS,A2,talking,GOLDILICIOUS,m,f,female-biased
7,P67609,description,M67,179408,PINKALICIOUS,D1,imaginative,GOLDILICIOUS,m,f,female-biased
7,P67609,description,M67,179408,PINKALICIOUS,D2,creative,GOLDILICIOUS,m,f,female-biased
8,P67609,activity,M67,199919,PETER,A1,stepping right into it,GOLDILICIOUS,s,m,female-biased
8,P67609,activity,M67,199919,PETER,A2,sitting on Goldie,GOLDILICIOUS,s,m,female-biased
9,P67609,description,M67,239763,PETER,D1,talkative,GOLDILICIOUS,s,m,female-biased
9,P67609,description,M67,239763,PETER,D2,uncreative,GOLDILICIOUS,s,m,female-biased
11,P67609,activity,M42,272544,MOUSE,A1,asking,IF YOU GIVE A MOUSE A COOKIE,m,m,male-biased
11,P67609,activity,M42,272544,MOUSE,A2,sweeping,IF YOU GIVE A MOUSE A COOKIE,m,m,male-biased
11,P67609,activity,M42,272544,MOUSE,A3,drawing,IF YOU GIVE A MOUSE A COOKIE,m,m,male-biased
12,P67609,description,M42,277353,MOUSE,D1,hungry,IF YOU GIVE A MOUSE A COOKIE,m,m,male-biased
12,P67609,description,M42,277353,MOUSE,D2,busy,IF YOU GIVE A MOUSE A COOKIE,m,m,male-biased
13,P67609,familiarity,NA,283787,NA,book_1,not familiar,NA,NA,NA,NA
13,P67609,familiarity,NA,283787,NA,book_2,not familiar,NA,NA,NA,NA
13,P67609,familiarity,NA,283787,NA,book_3,familiar,NA,NA,NA,NA
14,P67609,participant_gender,NA,286862,NA,gender,Male,NA,NA,NA,NA
3,P67616,activity,M85,216436,MOOSE,A1,Go,IF YOU GIVE A MOOSE A MUFFIN,m,m,male-biased
3,P67616,activity,M85,216436,MOOSE,A2,Ask,IF YOU GIVE A MOOSE A MUFFIN,m,m,male-biased
3,P67616,activity,M85,216436,MOOSE,A3,Eat,IF YOU GIVE A MOOSE A MUFFIN,m,m,male-biased
3,P67616,activity,M85,216436,MOOSE,A4,Sew,IF YOU GIVE A MOOSE A MUFFIN,m,m,male-biased
3,P67616,activity,M85,216436,MOOSE,A5,Run,IF YOU GIVE A MOOSE A MUFFIN,m,m,male-biased
4,P67616,description,M85,303114,MOOSE,D1,Playful,IF YOU GIVE A MOOSE A MUFFIN,m,m,male-biased
4,P67616,description,M85,303114,MOOSE,D2,Childish,IF YOU GIVE A MOOSE A MUFFIN,m,m,male-biased
4,P67616,description,M85,303114,MOOSE,D3,Innocent ,IF YOU GIVE A MOOSE A MUFFIN,m,m,male-biased
4,P67616,description,M85,303114,MOOSE,D4,Happy,IF YOU GIVE A MOOSE A MUFFIN,m,m,male-biased
4,P67616,description,M85,303114,MOOSE,D5,Energetic,IF YOU GIVE A MOOSE A MUFFIN,m,m,male-biased
6,P67616,activity,L198,498489,MORTIMER,A1,Sing,MORTIMER,m,m,male-biased
6,P67616,activity,L198,498489,MORTIMER,A2,Talk,MORTIMER,m,m,male-biased
6,P67616,activity,L198,498489,MORTIMER,A3,Play,MORTIMER,m,m,male-biased
6,P67616,activity,L198,498489,MORTIMER,A4,Walk,MORTIMER,m,m,male-biased
6,P67616,activity,L198,498489,MORTIMER,A5,Shook,MORTIMER,m,m,male-biased
7,P67616,description,L198,589825,MORTIMER,D1,Annoying ,MORTIMER,m,m,male-biased
7,P67616,description,L198,589825,MORTIMER,D2,Happy,MORTIMER,m,m,male-biased
7,P67616,description,L198,589825,MORTIMER,D3,Selfish,MORTIMER,m,m,male-biased
7,P67616,description,L198,589825,MORTIMER,D4,Arrogant,MORTIMER,m,m,male-biased
7,P67616,description,L198,589825,MORTIMER,D5,Disliked,MORTIMER,m,m,male-biased
8,P67616,activity,L198,649417,MORTIMER'S MOTHER,A1,Fight,MORTIMER,s,f,male-biased
8,P67616,activity,L198,649417,MORTIMER'S MOTHER,A2,Walk,MORTIMER,s,f,male-biased
8,P67616,activity,L198,649417,MORTIMER'S MOTHER,A3,Talk,MORTIMER,s,f,male-biased
8,P67616,activity,L198,649417,MORTIMER'S MOTHER,A4,Shut,MORTIMER,s,f,male-biased
8,P67616,activity,L198,649417,MORTIMER'S MOTHER,A5,Throw,MORTIMER,s,f,male-biased
9,P67616,description,L198,695799,MORTIMER'S MOTHER,D1,Angry,MORTIMER,s,f,male-biased
9,P67616,description,L198,695799,MORTIMER'S MOTHER,D2,Irritated,MORTIMER,s,f,male-biased
9,P67616,description,L198,695799,MORTIMER'S MOTHER,D3,Emotional,MORTIMER,s,f,male-biased
9,P67616,description,L198,695799,MORTIMER'S MOTHER,D4,Uncontrollable ,MORTIMER,s,f,male-biased
9,P67616,description,L198,695799,MORTIMER'S MOTHER,D5,Frustrated ,MORTIMER,s,f,male-biased
10,P67616,activity,L198,733698,MORTIMER'S FATHER,A1,Scream,MORTIMER,s,m,male-biased
10,P67616,activity,L198,733698,MORTIMER'S FATHER,A2,Walk,MORTIMER,s,m,male-biased
10,P67616,activity,L198,733698,MORTIMER'S FATHER,A3,Fight,MORTIMER,s,m,male-biased
10,P67616,activity,L198,733698,MORTIMER'S FATHER,A4,Listen,MORTIMER,s,m,male-biased
10,P67616,activity,L198,733698,MORTIMER'S FATHER,A5,Open,MORTIMER,s,m,male-biased
11,P67616,description,L198,782047,MORTIMER'S FATHER,D1,Angry,MORTIMER,s,m,male-biased
11,P67616,description,L198,782047,MORTIMER'S FATHER,D2,Old,MORTIMER,s,m,male-biased
11,P67616,description,L198,782047,MORTIMER'S FATHER,D3,Sad,MORTIMER,s,m,male-biased
11,P67616,description,L198,782047,MORTIMER'S FATHER,D4,Mad,MORTIMER,s,m,male-biased
11,P67616,description,L198,782047,MORTIMER'S FATHER,D5,Frustrated ,MORTIMER,s,m,male-biased
13,P67616,activity,M17,953642,MADELINE,A1,Cry,MADELINE,m,f,female-biased
13,P67616,activity,M17,953642,MADELINE,A2,Eat,MADELINE,m,f,female-biased
13,P67616,activity,M17,953642,MADELINE,A3,Drink,MADELINE,m,f,female-biased
13,P67616,activity,M17,953642,MADELINE,A4,Sleep,MADELINE,m,f,female-biased
13,P67616,activity,M17,953642,MADELINE,A5,Talk,MADELINE,m,f,female-biased
14,P67616,description,M17,981482,MADELINE,D1,Pitiful ,MADELINE,m,f,female-biased
14,P67616,description,M17,981482,MADELINE,D2,Weird,MADELINE,m,f,female-biased
14,P67616,description,M17,981482,MADELINE,D3,Young,MADELINE,m,f,female-biased
14,P67616,description,M17,981482,MADELINE,D4,Scared,MADELINE,m,f,female-biased
14,P67616,description,M17,981482,MADELINE,D5,Little,MADELINE,m,f,female-biased
15,P67616,familiarity,NA,991535,NA,book_1,not familiar,NA,NA,NA,NA
15,P67616,familiarity,NA,991535,NA,book_2,not familiar,NA,NA,NA,NA
15,P67616,familiarity,NA,991535,NA,book_3,not familiar,NA,NA,NA,NA
16,P67616,participant_gender,NA,995190,NA,gender,Female,NA,NA,NA,NA
3,P67617,activity,M67,296586,PINKALICIOUS,A1,put,GOLDILICIOUS,m,f,female-biased
3,P67617,activity,M67,296586,PINKALICIOUS,A2,climb,GOLDILICIOUS,m,f,female-biased
3,P67617,activity,M67,296586,PINKALICIOUS,A3,run,GOLDILICIOUS,m,f,female-biased
3,P67617,activity,M67,296586,PINKALICIOUS,A4,scold,GOLDILICIOUS,m,f,female-biased
3,P67617,activity,M67,296586,PINKALICIOUS,A5,rescue,GOLDILICIOUS,m,f,female-biased
4,P67617,description,M67,450831,PINKALICIOUS,D1,galloping,GOLDILICIOUS,m,f,female-biased
4,P67617,description,M67,450831,PINKALICIOUS,D2,free,GOLDILICIOUS,m,f,female-biased
4,P67617,description,M67,450831,PINKALICIOUS,D3,pinkerrifc,GOLDILICIOUS,m,f,female-biased
4,P67617,description,M67,450831,PINKALICIOUS,D4,fast,GOLDILICIOUS,m,f,female-biased
4,P67617,description,M67,450831,PINKALICIOUS,D5,loudly,GOLDILICIOUS,m,f,female-biased
5,P67617,activity,M67,540292,PETER,A1,whine,GOLDILICIOUS,s,m,female-biased
5,P67617,activity,M67,540292,PETER,A2,ask,GOLDILICIOUS,s,m,female-biased
5,P67617,activity,M67,540292,PETER,A3,yell,GOLDILICIOUS,s,m,female-biased
5,P67617,activity,M67,540292,PETER,A4,say,GOLDILICIOUS,s,m,female-biased
5,P67617,activity,M67,540292,PETER,A5,ran off,GOLDILICIOUS,s,m,female-biased
6,P67617,description,M67,646698,PETER,D1,dress up,GOLDILICIOUS,s,m,female-biased
6,P67617,description,M67,646698,PETER,D2,whined,GOLDILICIOUS,s,m,female-biased
8,P67617,activity,M13,699565,HAROLD,A1,decide,HAROLD AND THE PURPLE CRAYON,m,m,male-biased
8,P67617,activity,M13,699565,HAROLD,A2,made,HAROLD AND THE PURPLE CRAYON,m,m,male-biased
8,P67617,activity,M13,699565,HAROLD,A3,left,HAROLD AND THE PURPLE CRAYON,m,m,male-biased
8,P67617,activity,M13,699565,HAROLD,A4,back,HAROLD AND THE PURPLE CRAYON,m,m,male-biased
8,P67617,activity,M13,699565,HAROLD,A5,see,HAROLD AND THE PURPLE CRAYON,m,m,male-biased
9,P67617,description,M13,767545,HAROLD,D1,lost,HAROLD AND THE PURPLE CRAYON,m,m,male-biased
9,P67617,description,M13,767545,HAROLD,D2,terribly,HAROLD AND THE PURPLE CRAYON,m,m,male-biased
9,P67617,description,M13,767545,HAROLD,D3,purple,HAROLD AND THE PURPLE CRAYON,m,m,male-biased
9,P67617,description,M13,767545,HAROLD,D4,straight,HAROLD AND THE PURPLE CRAYON,m,m,male-biased
11,P67617,activity,L144,1038162,LORIS,A1,live,SLOW LORIS,m,m,neutral
11,P67617,activity,L144,1038162,LORIS,A2,eat,SLOW LORIS,m,m,neutral
11,P67617,activity,L144,1038162,LORIS,A3,scratch,SLOW LORIS,m,m,neutral
11,P67617,activity,L144,1038162,LORIS,A4,spread,SLOW LORIS,m,m,neutral
11,P67617,activity,L144,1038162,LORIS,A5,care,SLOW LORIS,m,m,neutral
12,P67617,description,L144,1084240,LORIS,D1,tired,SLOW LORIS,m,m,neutral
12,P67617,description,L144,1084240,LORIS,D2,slow,SLOW LORIS,m,m,neutral
12,P67617,description,L144,1084240,LORIS,D3,wild,SLOW LORIS,m,m,neutral
12,P67617,description,L144,1084240,LORIS,D4,boring,SLOW LORIS,m,m,neutral
13,P67617,familiarity,NA,1098935,NA,book_1,not familiar,NA,NA,NA,NA
13,P67617,familiarity,NA,1098935,NA,book_2,not familiar,NA,NA,NA,NA
13,P67617,familiarity,NA,1098935,NA,book_3,not familiar,NA,NA,NA,NA
14,P67617,participant_gender,NA,1103015,NA,gender,female,NA,NA,NA,NA
3,P67623,activity,L185,112811,GRANDMA,A1,Held,GRANDMA WISHES,m,f,female-biased
3,P67623,activity,L185,112811,GRANDMA,A2,Listened,GRANDMA WISHES,m,f,female-biased
3,P67623,activity,L185,112811,GRANDMA,A3,Swelled,GRANDMA WISHES,m,f,female-biased
3,P67623,activity,L185,112811,GRANDMA,A4,Wished,GRANDMA WISHES,m,f,female-biased
4,P67623,description,L185,154304,GRANDMA,D1,Loving,GRANDMA WISHES,m,f,female-biased
4,P67623,description,L185,154304,GRANDMA,D2,Hopeful,GRANDMA WISHES,m,f,female-biased
4,P67623,description,L185,154304,GRANDMA,D3,Wishful,GRANDMA WISHES,m,f,female-biased
6,P67623,activity,L107,353430,THOMAS,A1,Breaks,"THOMAS AND FRIENDS: GO, TRAIN, GO!",m,m,male-biased
6,P67623,activity,L107,353430,THOMAS,A2,Goes,"THOMAS AND FRIENDS: GO, TRAIN, GO!",m,m,male-biased
6,P67623,activity,L107,353430,THOMAS,A3,Working,"THOMAS AND FRIENDS: GO, TRAIN, GO!",m,m,male-biased
6,P67623,activity,L107,353430,THOMAS,A4,Speaks,"THOMAS AND FRIENDS: GO, TRAIN, GO!",m,m,male-biased
7,P67623,description,L107,381116,THOMAS,D1,Cautious,"THOMAS AND FRIENDS: GO, TRAIN, GO!",m,m,male-biased
7,P67623,description,L107,381116,THOMAS,D2,Blue,"THOMAS AND FRIENDS: GO, TRAIN, GO!",m,m,male-biased
7,P67623,description,L107,381116,THOMAS,D3,Little ,"THOMAS AND FRIENDS: GO, TRAIN, GO!",m,m,male-biased
9,P67623,activity,M68,459839,MAISY,A1,Camping,MAISY GOES CAMPING,m,f,neutral
9,P67623,activity,M68,459839,MAISY,A2,Pitching,MAISY GOES CAMPING,m,f,neutral
9,P67623,activity,M68,459839,MAISY,A3,Falling,MAISY GOES CAMPING,m,f,neutral
9,P67623,activity,M68,459839,MAISY,A4,Helping,MAISY GOES CAMPING,m,f,neutral
10,P67623,description,M68,496597,MAISY,D1,Helpful,MAISY GOES CAMPING,m,f,neutral
10,P67623,description,M68,496597,MAISY,D2,Adventurous ,MAISY GOES CAMPING,m,f,neutral
10,P67623,description,M68,496597,MAISY,D3,Female,MAISY GOES CAMPING,m,f,neutral
11,P67623,familiarity,NA,506012,NA,book_1,not familiar,NA,NA,NA,NA
11,P67623,familiarity,NA,506012,NA,book_2,not familiar,NA,NA,NA,NA
11,P67623,familiarity,NA,506012,NA,book_3,not familiar,NA,NA,NA,NA
12,P67623,participant_gender,NA,509609,NA,gender,Female,NA,NA,NA,NA
3,P67632,activity,M1,72947,GEORGE,A1,bark,"BARK, GEORGE",m,m,male-biased
3,P67632,activity,M1,72947,GEORGE,A2,meow,"BARK, GEORGE",m,m,male-biased
3,P67632,activity,M1,72947,GEORGE,A3,quack,"BARK, GEORGE",m,m,male-biased
3,P67632,activity,M1,72947,GEORGE,A4,moo,"BARK, GEORGE",m,m,male-biased
3,P67632,activity,M1,72947,GEORGE,A5,oink,"BARK, GEORGE",m,m,male-biased
4,P67632,description,M1,96167,GEORGE,D1,cat,"BARK, GEORGE",m,m,male-biased
4,P67632,description,M1,96167,GEORGE,D2,dog,"BARK, GEORGE",m,m,male-biased
4,P67632,description,M1,96167,GEORGE,D3,cow,"BARK, GEORGE",m,m,male-biased
4,P67632,description,M1,96167,GEORGE,D4,duck,"BARK, GEORGE",m,m,male-biased
4,P67632,description,M1,96167,GEORGE,D5,pig,"BARK, GEORGE",m,m,male-biased
5,P67632,activity,M1,119735,GEORGE'S MOTHER,A1,talk,"BARK, GEORGE",s,f,male-biased
5,P67632,activity,M1,119735,GEORGE'S MOTHER,A2,drive,"BARK, GEORGE",s,f,male-biased
5,P67632,activity,M1,119735,GEORGE'S MOTHER,A3,walk,"BARK, GEORGE",s,f,male-biased
5,P67632,activity,M1,119735,GEORGE'S MOTHER,A4,kiss,"BARK, GEORGE",s,f,male-biased
5,P67632,activity,M1,119735,GEORGE'S MOTHER,A5,feel,"BARK, GEORGE",s,f,male-biased
6,P67632,description,M1,151078,GEORGE'S MOTHER,D1,persistent,"BARK, GEORGE",s,f,male-biased
6,P67632,description,M1,151078,GEORGE'S MOTHER,D2,happy,"BARK, GEORGE",s,f,male-biased
6,P67632,description,M1,151078,GEORGE'S MOTHER,D3,smart,"BARK, GEORGE",s,f,male-biased
6,P67632,description,M1,151078,GEORGE'S MOTHER,D4,loving,"BARK, GEORGE",s,f,male-biased
6,P67632,description,M1,151078,GEORGE'S MOTHER,D5,caring,"BARK, GEORGE",s,f,male-biased
8,P67632,activity,M31,201625,THE BUS DRIVER,A1,walk,DON'T LET THE PIGEON DRIVE THE BUS,m,m,neutral
8,P67632,activity,M31,201625,THE BUS DRIVER,A2,talk,DON'T LET THE PIGEON DRIVE THE BUS,m,m,neutral
9,P67632,description,M31,214814,THE BUS DRIVER,D1,kind,DON'T LET THE PIGEON DRIVE THE BUS,m,m,neutral
9,P67632,description,M31,214814,THE BUS DRIVER,D2,trusting,DON'T LET THE PIGEON DRIVE THE BUS,m,m,neutral
11,P67632,activity,L185,268784,GRANDMA,A1,wish,GRANDMA WISHES,m,f,female-biased
11,P67632,activity,L185,268784,GRANDMA,A2,look,GRANDMA WISHES,m,f,female-biased
11,P67632,activity,L185,268784,GRANDMA,A3,holding,GRANDMA WISHES,m,f,female-biased
12,P67632,description,L185,285818,GRANDMA,D1,loving,GRANDMA WISHES,m,f,female-biased
12,P67632,description,L185,285818,GRANDMA,D2,sweet,GRANDMA WISHES,m,f,female-biased
12,P67632,description,L185,285818,GRANDMA,D3,joyful,GRANDMA WISHES,m,f,female-biased
13,P67632,familiarity,NA,293731,NA,book_1,not familiar,NA,NA,NA,NA
13,P67632,familiarity,NA,293731,NA,book_2,familiar,NA,NA,NA,NA
13,P67632,familiarity,NA,293731,NA,book_3,not familiar,NA,NA,NA,NA
14,P67632,participant_gender,NA,296636,NA,gender,female,NA,NA,NA,NA
3,P67681,activity,L223,132995,MICKEY,A1,skipped,IN THE NIGHT KITCHEN,m,m,neutral
3,P67681,activity,L223,132995,MICKEY,A2,slid,IN THE NIGHT KITCHEN,m,m,neutral
3,P67681,activity,L223,132995,MICKEY,A3,sang,IN THE NIGHT KITCHEN,m,m,neutral
4,P67681,description,L223,194347,MICKEY,D1,animated,IN THE NIGHT KITCHEN,m,m,neutral
4,P67681,description,L223,194347,MICKEY,D2,active,IN THE NIGHT KITCHEN,m,m,neutral
4,P67681,description,L223,194347,MICKEY,D3,energetic,IN THE NIGHT KITCHEN,m,m,neutral
6,P67681,activity,M23,516144,BOY,A1,climb,THE GIVING TREE,m,m,neutral
6,P67681,activity,M23,516144,BOY,A2,sleep,THE GIVING TREE,m,m,neutral
6,P67681,activity,M23,516144,BOY,A3,eat,THE GIVING TREE,m,m,neutral
7,P67681,description,M23,541099,BOY,D1,loving,THE GIVING TREE,m,m,neutral
7,P67681,description,M23,541099,BOY,D2,happy,THE GIVING TREE,m,m,neutral
7,P67681,description,M23,541099,BOY,D3,innocent,THE GIVING TREE,m,m,neutral
8,P67681,activity,M23,575093,THE TREE,A1,sit,THE GIVING TREE,m,f,neutral
8,P67681,activity,M23,575093,THE TREE,A2,rest,THE GIVING TREE,m,f,neutral
9,P67681,description,M23,593078,THE TREE,D1,loving,THE GIVING TREE,m,f,neutral
9,P67681,description,M23,593078,THE TREE,D2,old,THE GIVING TREE,m,f,neutral
11,P67681,activity,M57,672088,MAISY,A1,read,MAISY GOES TO THE LIBRARY,m,f,female-biased
11,P67681,activity,M57,672088,MAISY,A2,play,MAISY GOES TO THE LIBRARY,m,f,female-biased
12,P67681,description,M57,688135,MAISY,D1,happy,MAISY GOES TO THE LIBRARY,m,f,female-biased
12,P67681,description,M57,688135,MAISY,D2,studious,MAISY GOES TO THE LIBRARY,m,f,female-biased
13,P67681,familiarity,NA,697942,NA,book_1,not familiar,NA,NA,NA,NA
13,P67681,familiarity,NA,697942,NA,book_2,familiar,NA,NA,NA,NA
13,P67681,familiarity,NA,697942,NA,book_3,not familiar,NA,NA,NA,NA
14,P67681,participant_gender,NA,701718,NA,gender,Male,NA,NA,NA,NA
3,P67688,activity,L237,163130,LITTLE OWL,A1,watch,LITTLE OWL'S NIGHT,m,m,neutral
3,P67688,activity,L237,163130,LITTLE OWL,A2,visit,LITTLE OWL'S NIGHT,m,m,neutral
3,P67688,activity,L237,163130,LITTLE OWL,A3,fly,LITTLE OWL'S NIGHT,m,m,neutral
3,P67688,activity,L237,163130,LITTLE OWL,A4,sit,LITTLE OWL'S NIGHT,m,m,neutral
3,P67688,activity,L237,163130,LITTLE OWL,A5,hear,LITTLE OWL'S NIGHT,m,m,neutral
4,P67688,description,L237,391357,LITTLE OWL,D1,wonderful,LITTLE OWL'S NIGHT,m,m,neutral
4,P67688,description,L237,391357,LITTLE OWL,D2,peaceful,LITTLE OWL'S NIGHT,m,m,neutral
4,P67688,description,L237,391357,LITTLE OWL,D3,quiet,LITTLE OWL'S NIGHT,m,m,neutral
4,P67688,description,L237,391357,LITTLE OWL,D4,pretty,LITTLE OWL'S NIGHT,m,m,neutral
4,P67688,description,L237,391357,LITTLE OWL,D5,dark,LITTLE OWL'S NIGHT,m,m,neutral
6,P67688,activity,M70,563979,MAMA LLAMA,A1,bring,LLAMA LLAMA HOME WITH MAMA,m,f,female-biased
6,P67688,activity,M70,563979,MAMA LLAMA,A2,cough,LLAMA LLAMA HOME WITH MAMA,m,f,female-biased
6,P67688,activity,M70,563979,MAMA LLAMA,A3,sneeze,LLAMA LLAMA HOME WITH MAMA,m,f,female-biased
6,P67688,activity,M70,563979,MAMA LLAMA,A4,gets a book,LLAMA LLAMA HOME WITH MAMA,m,f,female-biased
6,P67688,activity,M70,563979,MAMA LLAMA,A5,sleeps,LLAMA LLAMA HOME WITH MAMA,m,f,female-biased
7,P67688,description,M70,927679,MAMA LLAMA,D1,sick,LLAMA LLAMA HOME WITH MAMA,m,f,female-biased
7,P67688,description,M70,927679,MAMA LLAMA,D2,tired,LLAMA LLAMA HOME WITH MAMA,m,f,female-biased
7,P67688,description,M70,927679,MAMA LLAMA,D3,attentive,LLAMA LLAMA HOME WITH MAMA,m,f,female-biased
7,P67688,description,M70,927679,MAMA LLAMA,D4,careful,LLAMA LLAMA HOME WITH MAMA,m,f,female-biased
7,P67688,description,M70,927679,MAMA LLAMA,D5,sleepy,LLAMA LLAMA HOME WITH MAMA,m,f,female-biased
8,P67688,activity,M70,1012242,LLAMA LLAMA,A1,sneeze,LLAMA LLAMA HOME WITH MAMA,m,m,female-biased
8,P67688,activity,M70,1012242,LLAMA LLAMA,A2,doze,LLAMA LLAMA HOME WITH MAMA,m,m,female-biased
8,P67688,activity,M70,1012242,LLAMA LLAMA,A3,bring a cup,LLAMA LLAMA HOME WITH MAMA,m,m,female-biased
8,P67688,activity,M70,1012242,LLAMA LLAMA,A4,get tissues,LLAMA LLAMA HOME WITH MAMA,m,m,female-biased
8,P67688,activity,M70,1012242,LLAMA LLAMA,A5,yawn,LLAMA LLAMA HOME WITH MAMA,m,m,female-biased
9,P67688,description,M70,1097730,LLAMA LLAMA,D1,sick,LLAMA LLAMA HOME WITH MAMA,m,m,female-biased
9,P67688,description,M70,1097730,LLAMA LLAMA,D2,tired,LLAMA LLAMA HOME WITH MAMA,m,m,female-biased
9,P67688,description,M70,1097730,LLAMA LLAMA,D3,stuffy head,LLAMA LLAMA HOME WITH MAMA,m,m,female-biased
9,P67688,description,M70,1097730,LLAMA LLAMA,D4,achy,LLAMA LLAMA HOME WITH MAMA,m,m,female-biased
9,P67688,description,M70,1097730,LLAMA LLAMA,D5,drippy nose,LLAMA LLAMA HOME WITH MAMA,m,m,female-biased
11,P67688,activity,M17,1253813,MADELINE,A1,say,MADELINE,m,f,female-biased
11,P67688,activity,M17,1253813,MADELINE,A2,sit,MADELINE,m,f,female-biased
11,P67688,activity,M17,1253813,MADELINE,A3,wake up,MADELINE,m,f,female-biased
11,P67688,activity,M17,1253813,MADELINE,A4,eat,MADELINE,m,f,female-biased
11,P67688,activity,M17,1253813,MADELINE,A5,drink,MADELINE,m,f,female-biased
12,P67688,description,M17,1543677,MADELINE,D1,sad,MADELINE,m,f,female-biased
12,P67688,description,M17,1543677,MADELINE,D2,brave,MADELINE,m,f,female-biased
12,P67688,description,M17,1543677,MADELINE,D3,comfortable,MADELINE,m,f,female-biased
12,P67688,description,M17,1543677,MADELINE,D4,advanturous,MADELINE,m,f,female-biased
12,P67688,description,M17,1543677,MADELINE,D5,sleepy,MADELINE,m,f,female-biased
13,P67688,familiarity,NA,1558606,NA,book_1,familiar,NA,NA,NA,NA
13,P67688,familiarity,NA,1558606,NA,book_2,familiar,NA,NA,NA,NA
13,P67688,familiarity,NA,1558606,NA,book_3,familiar,NA,NA,NA,NA
14,P67688,participant_gender,NA,1564246,NA,gender,Female,NA,NA,NA,NA
3,P67690,activity,L210,41659,BABY BELUGA,A1,swim,BABY BELUGA,m,n,female-biased
3,P67690,activity,L210,41659,BABY BELUGA,A2,splash,BABY BELUGA,m,n,female-biased
3,P67690,activity,L210,41659,BABY BELUGA,A3,dive,BABY BELUGA,m,n,female-biased
3,P67690,activity,L210,41659,BABY BELUGA,A4,play,BABY BELUGA,m,n,female-biased
3,P67690,activity,L210,41659,BABY BELUGA,A5,sleep,BABY BELUGA,m,n,female-biased
4,P67690,description,L210,58342,BABY BELUGA,D1,happy,BABY BELUGA,m,n,female-biased
4,P67690,description,L210,58342,BABY BELUGA,D2,free,BABY BELUGA,m,n,female-biased
4,P67690,description,L210,58342,BABY BELUGA,D3,tired,BABY BELUGA,m,n,female-biased
4,P67690,description,L210,58342,BABY BELUGA,D4,excited,BABY BELUGA,m,n,female-biased
4,P67690,description,L210,58342,BABY BELUGA,D5,content,BABY BELUGA,m,n,female-biased
6,P67690,activity,L196,97460,LITTLE BEAR,A1,play,LITTLE BEAR: WHAT WILL LITTLE BEAR WEAR?,m,m,neutral
6,P67690,activity,L196,97460,LITTLE BEAR,A2,build,LITTLE BEAR: WHAT WILL LITTLE BEAR WEAR?,m,m,neutral
6,P67690,activity,L196,97460,LITTLE BEAR,A3,talk,LITTLE BEAR: WHAT WILL LITTLE BEAR WEAR?,m,m,neutral
6,P67690,activity,L196,97460,LITTLE BEAR,A4,walk,LITTLE BEAR: WHAT WILL LITTLE BEAR WEAR?,m,m,neutral
6,P67690,activity,L196,97460,LITTLE BEAR,A5,see,LITTLE BEAR: WHAT WILL LITTLE BEAR WEAR?,m,m,neutral
7,P67690,description,L196,124962,LITTLE BEAR,D1,kind,LITTLE BEAR: WHAT WILL LITTLE BEAR WEAR?,m,m,neutral
7,P67690,description,L196,124962,LITTLE BEAR,D2,clever,LITTLE BEAR: WHAT WILL LITTLE BEAR WEAR?,m,m,neutral
7,P67690,description,L196,124962,LITTLE BEAR,D3,cold,LITTLE BEAR: WHAT WILL LITTLE BEAR WEAR?,m,m,neutral
7,P67690,description,L196,124962,LITTLE BEAR,D4,happy,LITTLE BEAR: WHAT WILL LITTLE BEAR WEAR?,m,m,neutral
7,P67690,description,L196,124962,LITTLE BEAR,D5,curious,LITTLE BEAR: WHAT WILL LITTLE BEAR WEAR?,m,m,neutral
8,P67690,activity,L196,239835,MOTHER BEAR,A1,help,LITTLE BEAR: WHAT WILL LITTLE BEAR WEAR?,s,f,neutral
8,P67690,activity,L196,239835,MOTHER BEAR,A2,make,LITTLE BEAR: WHAT WILL LITTLE BEAR WEAR?,s,f,neutral
8,P67690,activity,L196,239835,MOTHER BEAR,A3,see,LITTLE BEAR: WHAT WILL LITTLE BEAR WEAR?,s,f,neutral
8,P67690,activity,L196,239835,MOTHER BEAR,A4,care,LITTLE BEAR: WHAT WILL LITTLE BEAR WEAR?,s,f,neutral
8,P67690,activity,L196,239835,MOTHER BEAR,A5,stand,LITTLE BEAR: WHAT WILL LITTLE BEAR WEAR?,s,f,neutral
9,P67690,description,L196,251909,MOTHER BEAR,D1,kind,LITTLE BEAR: WHAT WILL LITTLE BEAR WEAR?,s,f,neutral
9,P67690,description,L196,251909,MOTHER BEAR,D2,clever,LITTLE BEAR: WHAT WILL LITTLE BEAR WEAR?,s,f,neutral
9,P67690,description,L196,251909,MOTHER BEAR,D3,smart,LITTLE BEAR: WHAT WILL LITTLE BEAR WEAR?,s,f,neutral
9,P67690,description,L196,251909,MOTHER BEAR,D4,helpful,LITTLE BEAR: WHAT WILL LITTLE BEAR WEAR?,s,f,neutral
9,P67690,description,L196,251909,MOTHER BEAR,D5,concerned,LITTLE BEAR: WHAT WILL LITTLE BEAR WEAR?,s,f,neutral
11,P67690,activity,M42,273271,MOUSE,A1,ask,IF YOU GIVE A MOUSE A COOKIE,m,m,male-biased
11,P67690,activity,M42,273271,MOUSE,A2,eat,IF YOU GIVE A MOUSE A COOKIE,m,m,male-biased
11,P67690,activity,M42,273271,MOUSE,A3,take,IF YOU GIVE A MOUSE A COOKIE,m,m,male-biased
11,P67690,activity,M42,273271,MOUSE,A4,work,IF YOU GIVE A MOUSE A COOKIE,m,m,male-biased
11,P67690,activity,M42,273271,MOUSE,A5,help,IF YOU GIVE A MOUSE A COOKIE,m,m,male-biased
12,P67690,description,M42,291131,MOUSE,D1,needy,IF YOU GIVE A MOUSE A COOKIE,m,m,male-biased
12,P67690,description,M42,291131,MOUSE,D2,helpful,IF YOU GIVE A MOUSE A COOKIE,m,m,male-biased
12,P67690,description,M42,291131,MOUSE,D3,hungry,IF YOU GIVE A MOUSE A COOKIE,m,m,male-biased
12,P67690,description,M42,291131,MOUSE,D4,tired,IF YOU GIVE A MOUSE A COOKIE,m,m,male-biased
12,P67690,description,M42,291131,MOUSE,D5,smart,IF YOU GIVE A MOUSE A COOKIE,m,m,male-biased
13,P67690,familiarity,NA,301345,NA,book_1,familiar,NA,NA,NA,NA
13,P67690,familiarity,NA,301345,NA,book_2,not familiar,NA,NA,NA,NA
13,P67690,familiarity,NA,301345,NA,book_3,familiar,NA,NA,NA,NA
14,P67690,participant_gender,NA,305179,NA,gender,Female,NA,NA,NA,NA
3,P67746,activity,M1,93884,GEORGE,A1,speak,"BARK, GEORGE",m,m,male-biased
3,P67746,activity,M1,93884,GEORGE,A2,meow,"BARK, GEORGE",m,m,male-biased
3,P67746,activity,M1,93884,GEORGE,A3,quack,"BARK, GEORGE",m,m,male-biased
3,P67746,activity,M1,93884,GEORGE,A4,oink,"BARK, GEORGE",m,m,male-biased
3,P67746,activity,M1,93884,GEORGE,A5,talk,"BARK, GEORGE",m,m,male-biased
4,P67746,description,M1,110038,GEORGE,D1,child,"BARK, GEORGE",m,m,male-biased
4,P67746,description,M1,110038,GEORGE,D2,big,"BARK, GEORGE",m,m,male-biased
4,P67746,description,M1,110038,GEORGE,D3,disobedient,"BARK, GEORGE",m,m,male-biased
5,P67746,activity,M1,119062,GEORGE'S MOTHER,A1,talk,"BARK, GEORGE",s,f,male-biased
5,P67746,activity,M1,119062,GEORGE'S MOTHER,A2,scold,"BARK, GEORGE",s,f,male-biased
5,P67746,activity,M1,119062,GEORGE'S MOTHER,A3,drive,"BARK, GEORGE",s,f,male-biased
6,P67746,description,M1,127195,GEORGE'S MOTHER,D1,mean,"BARK, GEORGE",s,f,male-biased
6,P67746,description,M1,127195,GEORGE'S MOTHER,D2,loud,"BARK, GEORGE",s,f,male-biased
8,P67746,activity,L237,188012,LITTLE OWL,A1,fly,LITTLE OWL'S NIGHT,m,m,neutral
8,P67746,activity,L237,188012,LITTLE OWL,A2,talk,LITTLE OWL'S NIGHT,m,m,neutral
9,P67746,description,L237,199773,LITTLE OWL,D1,little,LITTLE OWL'S NIGHT,m,m,neutral
9,P67746,description,L237,199773,LITTLE OWL,D2,kind,LITTLE OWL'S NIGHT,m,m,neutral
9,P67746,description,L237,199773,LITTLE OWL,D3,friendly,LITTLE OWL'S NIGHT,m,m,neutral
11,P67746,activity,M70,278321,MAMA LLAMA,A1,read,LLAMA LLAMA HOME WITH MAMA,m,f,female-biased
11,P67746,activity,M70,278321,MAMA LLAMA,A2,talk,LLAMA LLAMA HOME WITH MAMA,m,f,female-biased
11,P67746,activity,M70,278321,MAMA LLAMA,A3,sneeze,LLAMA LLAMA HOME WITH MAMA,m,f,female-biased
12,P67746,description,M70,287629,MAMA LLAMA,D1,kind,LLAMA LLAMA HOME WITH MAMA,m,f,female-biased
12,P67746,description,M70,287629,MAMA LLAMA,D2,helpful,LLAMA LLAMA HOME WITH MAMA,m,f,female-biased
12,P67746,description,M70,287629,MAMA LLAMA,D3,mom,LLAMA LLAMA HOME WITH MAMA,m,f,female-biased
13,P67746,activity,M70,300282,LLAMA LLAMA,A1,sneezes,LLAMA LLAMA HOME WITH MAMA,m,m,female-biased
13,P67746,activity,M70,300282,LLAMA LLAMA,A2,plays,LLAMA LLAMA HOME WITH MAMA,m,m,female-biased
13,P67746,activity,M70,300282,LLAMA LLAMA,A3,speaks,LLAMA LLAMA HOME WITH MAMA,m,m,female-biased
14,P67746,description,M70,309631,LLAMA LLAMA,D1,sick,LLAMA LLAMA HOME WITH MAMA,m,m,female-biased
14,P67746,description,M70,309631,LLAMA LLAMA,D2,helpful,LLAMA LLAMA HOME WITH MAMA,m,m,female-biased
14,P67746,description,M70,309631,LLAMA LLAMA,D3,kind,LLAMA LLAMA HOME WITH MAMA,m,m,female-biased
14,P67746,description,M70,309631,LLAMA LLAMA,D4,bored,LLAMA LLAMA HOME WITH MAMA,m,m,female-biased
15,P67746,familiarity,NA,321244,NA,book_1,not familiar,NA,NA,NA,NA
15,P67746,familiarity,NA,321244,NA,book_2,not familiar,NA,NA,NA,NA
15,P67746,familiarity,NA,321244,NA,book_3,not familiar,NA,NA,NA,NA
16,P67746,participant_gender,NA,325057,NA,gender,female,NA,NA,NA,NA
3,P67753,activity,L175,257561,PETER,A1,see,WHISTLE FOR WILLIE,m,m,male-biased
3,P67753,activity,L175,257561,PETER,A2,whirle,WHISTLE FOR WILLIE,m,m,male-biased
3,P67753,activity,L175,257561,PETER,A3,practice,WHISTLE FOR WILLIE,m,m,male-biased
3,P67753,activity,L175,257561,PETER,A4,try ,WHISTLE FOR WILLIE,m,m,male-biased
3,P67753,activity,L175,257561,PETER,A5,succeed,WHISTLE FOR WILLIE,m,m,male-biased
4,P67753,description,L175,309957,PETER,D1,naive,WHISTLE FOR WILLIE,m,m,male-biased
4,P67753,description,L175,309957,PETER,D2,hard-working,WHISTLE FOR WILLIE,m,m,male-biased
4,P67753,description,L175,309957,PETER,D3,brave,WHISTLE FOR WILLIE,m,m,male-biased
4,P67753,description,L175,309957,PETER,D4,intersting,WHISTLE FOR WILLIE,m,m,male-biased
4,P67753,description,L175,309957,PETER,D5,funny,WHISTLE FOR WILLIE,m,m,male-biased
6,P67753,activity,L196,592109,LITTLE BEAR,A1,demand,LITTLE BEAR: WHAT WILL LITTLE BEAR WEAR?,m,m,neutral
6,P67753,activity,L196,592109,LITTLE BEAR,A2,consume,LITTLE BEAR: WHAT WILL LITTLE BEAR WEAR?,m,m,neutral
7,P67753,description,L196,1433948,LITTLE BEAR,D1,selfish,LITTLE BEAR: WHAT WILL LITTLE BEAR WEAR?,m,m,neutral
7,P67753,description,L196,1433948,LITTLE BEAR,D2,young,LITTLE BEAR: WHAT WILL LITTLE BEAR WEAR?,m,m,neutral
7,P67753,description,L196,1433948,LITTLE BEAR,D3,naive,LITTLE BEAR: WHAT WILL LITTLE BEAR WEAR?,m,m,neutral
7,P67753,description,L196,1433948,LITTLE BEAR,D4,childish,LITTLE BEAR: WHAT WILL LITTLE BEAR WEAR?,m,m,neutral
8,P67753,activity,L196,1459424,MOTHER BEAR,A1,give,LITTLE BEAR: WHAT WILL LITTLE BEAR WEAR?,s,f,neutral
8,P67753,activity,L196,1459424,MOTHER BEAR,A2,spoil,LITTLE BEAR: WHAT WILL LITTLE BEAR WEAR?,s,f,neutral
8,P67753,activity,L196,1459424,MOTHER BEAR,A3,die,LITTLE BEAR: WHAT WILL LITTLE BEAR WEAR?,s,f,neutral
9,P67753,description,L196,1490896,MOTHER BEAR,D1,doting,LITTLE BEAR: WHAT WILL LITTLE BEAR WEAR?,s,f,neutral
9,P67753,description,L196,1490896,MOTHER BEAR,D2,selfless,LITTLE BEAR: WHAT WILL LITTLE BEAR WEAR?,s,f,neutral
11,P67753,activity,L198,1588449,MORTIMER,A1,play,MORTIMER,m,m,male-biased
11,P67753,activity,L198,1588449,MORTIMER,A2,trick,MORTIMER,m,m,male-biased
11,P67753,activity,L198,1588449,MORTIMER,A3,sleep,MORTIMER,m,m,male-biased
12,P67753,description,L198,1607841,MORTIMER,D1,loud,MORTIMER,m,m,male-biased
12,P67753,description,L198,1607841,MORTIMER,D2,naughty ,MORTIMER,m,m,male-biased
12,P67753,description,L198,1607841,MORTIMER,D3,young,MORTIMER,m,m,male-biased
13,P67753,activity,L198,1632023,MORTIMER'S MOTHER,A1,intervene,MORTIMER,s,f,male-biased
13,P67753,activity,L198,1632023,MORTIMER'S MOTHER,A2,fight,MORTIMER,s,f,male-biased
14,P67753,description,L198,1661803,MORTIMER'S MOTHER,D1,direct,MORTIMER,s,f,male-biased
14,P67753,description,L198,1661803,MORTIMER'S MOTHER,D2,reckless,MORTIMER,s,f,male-biased
15,P67753,activity,L198,1674906,MORTIMER'S FATHER,A1,reckless,MORTIMER,s,m,male-biased
15,P67753,activity,L198,1674906,MORTIMER'S FATHER,A2,direct,MORTIMER,s,m,male-biased
16,P67753,description,L198,1687747,MORTIMER'S FATHER,D1,direct,MORTIMER,s,m,male-biased
16,P67753,description,L198,1687747,MORTIMER'S FATHER,D2,reckless,MORTIMER,s,m,male-biased
17,P67753,familiarity,NA,1698294,NA,book_1,not familiar,NA,NA,NA,NA
17,P67753,familiarity,NA,1698294,NA,book_2,not familiar,NA,NA,NA,NA
17,P67753,familiarity,NA,1698294,NA,book_3,not familiar,NA,NA,NA,NA
18,P67753,participant_gender,NA,1702098,NA,gender,male,NA,NA,NA,NA
3,P67755,activity,M63,261597,TRIXIE,A1,went,KNUFFLE BUNNY,m,f,female-biased
3,P67755,activity,M63,261597,TRIXIE,A2,put,KNUFFLE BUNNY,m,f,female-biased
3,P67755,activity,M63,261597,TRIXIE,A3,helped,KNUFFLE BUNNY,m,f,female-biased
3,P67755,activity,M63,261597,TRIXIE,A4,said,KNUFFLE BUNNY,m,f,female-biased
3,P67755,activity,M63,261597,TRIXIE,A5,ran,KNUFFLE BUNNY,m,f,female-biased
4,P67755,description,M63,332610,TRIXIE,D1,young,KNUFFLE BUNNY,m,f,female-biased
4,P67755,description,M63,332610,TRIXIE,D2,determined,KNUFFLE BUNNY,m,f,female-biased
4,P67755,description,M63,332610,TRIXIE,D3,desperate,KNUFFLE BUNNY,m,f,female-biased
4,P67755,description,M63,332610,TRIXIE,D4,illiterate,KNUFFLE BUNNY,m,f,female-biased
5,P67755,activity,M63,369765,TRIXIE'S DADDY,A1,went,KNUFFLE BUNNY,s,m,female-biased
5,P67755,activity,M63,369765,TRIXIE'S DADDY,A2,put,KNUFFLE BUNNY,s,m,female-biased
5,P67755,activity,M63,369765,TRIXIE'S DADDY,A3,ran,KNUFFLE BUNNY,s,m,female-biased
5,P67755,activity,M63,369765,TRIXIE'S DADDY,A4,looked,KNUFFLE BUNNY,s,m,female-biased
6,P67755,description,M63,402790,TRIXIE'S DADDY,D1,confused,KNUFFLE BUNNY,s,m,female-biased
6,P67755,description,M63,402790,TRIXIE'S DADDY,D2,understanding,KNUFFLE BUNNY,s,m,female-biased
6,P67755,description,M63,402790,TRIXIE'S DADDY,D3,determined,KNUFFLE BUNNY,s,m,female-biased
6,P67755,description,M63,402790,TRIXIE'S DADDY,D4,forgetful,KNUFFLE BUNNY,s,m,female-biased
8,P67755,activity,M10,472618,PETER,A1,eat,THE SNOWY DAY,m,m,male-biased
8,P67755,activity,M10,472618,PETER,A2,walk,THE SNOWY DAY,m,m,male-biased
8,P67755,activity,M10,472618,PETER,A3,play,THE SNOWY DAY,m,m,male-biased
8,P67755,activity,M10,472618,PETER,A4,hit,THE SNOWY DAY,m,m,male-biased
8,P67755,activity,M10,472618,PETER,A5,sleep,THE SNOWY DAY,m,m,male-biased
9,P67755,description,M10,496226,PETER,D1,young,THE SNOWY DAY,m,m,male-biased
9,P67755,description,M10,496226,PETER,D2,curious,THE SNOWY DAY,m,m,male-biased
11,P67755,activity,L131,576054,ARTHUR,A1,sneeze,ARTHUR'S NOSE,m,m,male-biased
11,P67755,activity,L131,576054,ARTHUR,A2,play,ARTHUR'S NOSE,m,m,male-biased
11,P67755,activity,L131,576054,ARTHUR,A3,hide,ARTHUR'S NOSE,m,m,male-biased
12,P67755,description,L131,598232,ARTHUR,D1,insecure,ARTHUR'S NOSE,m,m,male-biased
12,P67755,description,L131,598232,ARTHUR,D2,sad,ARTHUR'S NOSE,m,m,male-biased
12,P67755,description,L131,598232,ARTHUR,D3,sick,ARTHUR'S NOSE,m,m,male-biased
12,P67755,description,L131,598232,ARTHUR,D4,young,ARTHUR'S NOSE,m,m,male-biased
13,P67755,familiarity,NA,604975,NA,book_1,not familiar,NA,NA,NA,NA
13,P67755,familiarity,NA,604975,NA,book_2,not familiar,NA,NA,NA,NA
13,P67755,familiarity,NA,604975,NA,book_3,not familiar,NA,NA,NA,NA
14,P67755,participant_gender,NA,607687,NA,gender,F,NA,NA,NA,NA
3,P67777,activity,L144,209559,LORIS,A1,eat,SLOW LORIS,m,m,neutral
3,P67777,activity,L144,209559,LORIS,A2,hung around,SLOW LORIS,m,m,neutral
3,P67777,activity,L144,209559,LORIS,A3,did things,SLOW LORIS,m,m,neutral
4,P67777,description,L144,249280,LORIS,D1,slow,SLOW LORIS,m,m,neutral
4,P67777,description,L144,249280,LORIS,D2,boring,SLOW LORIS,m,m,neutral
4,P67777,description,L144,249280,LORIS,D3,tired,SLOW LORIS,m,m,neutral
4,P67777,description,L144,249280,LORIS,D4,wild,SLOW LORIS,m,m,neutral
6,P67777,activity,M56,339041,LLAMA LLAMA RED PAJAMA/BABY LLAMA,A1,reads,LLAMA LLAMA RED PAJAMA,m,m,female-biased
6,P67777,activity,M56,339041,LLAMA LLAMA RED PAJAMA/BABY LLAMA,A2,calls,LLAMA LLAMA RED PAJAMA,m,m,female-biased
6,P67777,activity,M56,339041,LLAMA LLAMA RED PAJAMA/BABY LLAMA,A3,hums,LLAMA LLAMA RED PAJAMA,m,m,female-biased
6,P67777,activity,M56,339041,LLAMA LLAMA RED PAJAMA/BABY LLAMA,A4,frets,LLAMA LLAMA RED PAJAMA,m,m,female-biased
6,P67777,activity,M56,339041,LLAMA LLAMA RED PAJAMA/BABY LLAMA,A5,moans,LLAMA LLAMA RED PAJAMA,m,m,female-biased
7,P67777,description,M56,383078,LLAMA LLAMA RED PAJAMA/BABY LLAMA,D1,worried,LLAMA LLAMA RED PAJAMA,m,m,female-biased
7,P67777,description,M56,383078,LLAMA LLAMA RED PAJAMA/BABY LLAMA,D2,impatient,LLAMA LLAMA RED PAJAMA,m,m,female-biased
8,P67777,activity,M56,450196,MAMA LLAMA,A1,kisses,LLAMA LLAMA RED PAJAMA,m,f,female-biased
8,P67777,activity,M56,450196,MAMA LLAMA,A2,goes downstairs,LLAMA LLAMA RED PAJAMA,m,f,female-biased
8,P67777,activity,M56,450196,MAMA LLAMA,A3,hears the phone,LLAMA LLAMA RED PAJAMA,m,f,female-biased
9,P67777,description,M56,476588,MAMA LLAMA,D1,busy,LLAMA LLAMA RED PAJAMA,m,f,female-biased
9,P67777,description,M56,476588,MAMA LLAMA,D2,loving,LLAMA LLAMA RED PAJAMA,m,f,female-biased
11,P67777,activity,M66,610001,FROGGY,A1,played,FROGGY GOES TO BED,m,m,neutral
11,P67777,activity,M66,610001,FROGGY,A2,looked,FROGGY GOES TO BED,m,m,neutral
11,P67777,activity,M66,610001,FROGGY,A3,cried,FROGGY GOES TO BED,m,m,neutral
11,P67777,activity,M66,610001,FROGGY,A4,hugged,FROGGY GOES TO BED,m,m,neutral
11,P67777,activity,M66,610001,FROGGY,A5,took a bath,FROGGY GOES TO BED,m,m,neutral
12,P67777,description,M66,676632,FROGGY,D1,pooped,FROGGY GOES TO BED,m,m,neutral
12,P67777,description,M66,676632,FROGGY,D2,thirsty,FROGGY GOES TO BED,m,m,neutral
12,P67777,description,M66,676632,FROGGY,D3,not tired,FROGGY GOES TO BED,m,m,neutral
13,P67777,activity,M66,714284,MOTHER,A1,called to froggy,FROGGY GOES TO BED,s,f,neutral
13,P67777,activity,M66,714284,MOTHER,A2,wrapped him,FROGGY GOES TO BED,s,f,neutral
13,P67777,activity,M66,714284,MOTHER,A3,kissed ,FROGGY GOES TO BED,s,f,neutral
13,P67777,activity,M66,714284,MOTHER,A4,read,FROGGY GOES TO BED,s,f,neutral
13,P67777,activity,M66,714284,MOTHER,A5,fell asleep,FROGGY GOES TO BED,s,f,neutral
14,P67777,description,M66,795653,MOTHER,D1,tired,FROGGY GOES TO BED,s,f,neutral
14,P67777,description,M66,795653,MOTHER,D2,like a horse,FROGGY GOES TO BED,s,f,neutral
15,P67777,familiarity,NA,805585,NA,book_1,not familiar,NA,NA,NA,NA
15,P67777,familiarity,NA,805585,NA,book_2,not familiar,NA,NA,NA,NA
15,P67777,familiarity,NA,805585,NA,book_3,not familiar,NA,NA,NA,NA
16,P67777,participant_gender,NA,811752,NA,gender,Female,NA,NA,NA,NA
3,P67784,activity,M1,99709,GEORGE,A1,Run,"BARK, GEORGE",m,m,male-biased
3,P67784,activity,M1,99709,GEORGE,A2,eat,"BARK, GEORGE",m,m,male-biased
3,P67784,activity,M1,99709,GEORGE,A3,play,"BARK, GEORGE",m,m,male-biased
3,P67784,activity,M1,99709,GEORGE,A4,eat,"BARK, GEORGE",m,m,male-biased
3,P67784,activity,M1,99709,GEORGE,A5,Run,"BARK, GEORGE",m,m,male-biased
4,P67784,description,M1,123222,GEORGE,D1,pretty,"BARK, GEORGE",m,m,male-biased
4,P67784,description,M1,123222,GEORGE,D2,loud,"BARK, GEORGE",m,m,male-biased
4,P67784,description,M1,123222,GEORGE,D3,loud,"BARK, GEORGE",m,m,male-biased
4,P67784,description,M1,123222,GEORGE,D4,clever,"BARK, GEORGE",m,m,male-biased
4,P67784,description,M1,123222,GEORGE,D5,clever,"BARK, GEORGE",m,m,male-biased
5,P67784,activity,M1,153901,GEORGE'S MOTHER,A1,Run,"BARK, GEORGE",s,f,male-biased
5,P67784,activity,M1,153901,GEORGE'S MOTHER,A2,play,"BARK, GEORGE",s,f,male-biased
6,P67784,description,M1,169272,GEORGE'S MOTHER,D1,loud,"BARK, GEORGE",s,f,male-biased
6,P67784,description,M1,169272,GEORGE'S MOTHER,D2,pretty,"BARK, GEORGE",s,f,male-biased
8,P67784,activity,M57,219748,MAISY,A1,read,MAISY GOES TO THE LIBRARY,m,f,female-biased
8,P67784,activity,M57,219748,MAISY,A2,listen,MAISY GOES TO THE LIBRARY,m,f,female-biased
8,P67784,activity,M57,219748,MAISY,A3,see,MAISY GOES TO THE LIBRARY,m,f,female-biased
9,P67784,description,M57,247638,MAISY,D1,fun,MAISY GOES TO THE LIBRARY,m,f,female-biased
9,P67784,description,M57,247638,MAISY,D2,curious,MAISY GOES TO THE LIBRARY,m,f,female-biased
11,P67784,activity,L103,342420,MISS NELSON/MISS SWAMP,A1,arguing,MISS NELSON IS MISSING,m,f,female-biased
11,P67784,activity,L103,342420,MISS NELSON/MISS SWAMP,A2,talking,MISS NELSON IS MISSING,m,f,female-biased
11,P67784,activity,L103,342420,MISS NELSON/MISS SWAMP,A3,play,MISS NELSON IS MISSING,m,f,female-biased
12,P67784,description,L103,364334,MISS NELSON/MISS SWAMP,D1,rude,MISS NELSON IS MISSING,m,f,female-biased
12,P67784,description,L103,364334,MISS NELSON/MISS SWAMP,D2,wrong,MISS NELSON IS MISSING,m,f,female-biased
12,P67784,description,L103,364334,MISS NELSON/MISS SWAMP,D3,misbehaving,MISS NELSON IS MISSING,m,f,female-biased
13,P67784,familiarity,NA,377169,NA,book_1,familiar,NA,NA,NA,NA
13,P67784,familiarity,NA,377169,NA,book_2,familiar,NA,NA,NA,NA
13,P67784,familiarity,NA,377169,NA,book_3,not familiar,NA,NA,NA,NA
14,P67784,participant_gender,NA,381216,NA,gender,male,NA,NA,NA,NA
3,P67814,activity,M69,116631,OLIVIA,A1,cry,OLIVIA. . . AND THE MISSING TOY,m,f,female-biased
3,P67814,activity,M69,116631,OLIVIA,A2,complain,OLIVIA. . . AND THE MISSING TOY,m,f,female-biased
3,P67814,activity,M69,116631,OLIVIA,A3,forgive,OLIVIA. . . AND THE MISSING TOY,m,f,female-biased
3,P67814,activity,M69,116631,OLIVIA,A4,search,OLIVIA. . . AND THE MISSING TOY,m,f,female-biased
3,P67814,activity,M69,116631,OLIVIA,A5,yell,OLIVIA. . . AND THE MISSING TOY,m,f,female-biased
4,P67814,description,M69,183330,OLIVIA,D1,childish,OLIVIA. . . AND THE MISSING TOY,m,f,female-biased
4,P67814,description,M69,183330,OLIVIA,D2,caring,OLIVIA. . . AND THE MISSING TOY,m,f,female-biased
4,P67814,description,M69,183330,OLIVIA,D3,demanding,OLIVIA. . . AND THE MISSING TOY,m,f,female-biased
4,P67814,description,M69,183330,OLIVIA,D4,forgetful,OLIVIA. . . AND THE MISSING TOY,m,f,female-biased
4,P67814,description,M69,183330,OLIVIA,D5,spoiled,OLIVIA. . . AND THE MISSING TOY,m,f,female-biased
5,P67814,activity,M69,228049,OLIVIA'S MOTHER,A1,help,OLIVIA. . . AND THE MISSING TOY,s,f,female-biased
5,P67814,activity,M69,228049,OLIVIA'S MOTHER,A2,work,OLIVIA. . . AND THE MISSING TOY,s,f,female-biased
6,P67814,description,M69,237387,OLIVIA'S MOTHER,D1,caring,OLIVIA. . . AND THE MISSING TOY,s,f,female-biased
6,P67814,description,M69,237387,OLIVIA'S MOTHER,D2,understanding,OLIVIA. . . AND THE MISSING TOY,s,f,female-biased
8,P67814,activity,L196,599352,LITTLE BEAR,A1,play,LITTLE BEAR: WHAT WILL LITTLE BEAR WEAR?,m,m,neutral
8,P67814,activity,L196,599352,LITTLE BEAR,A2,complain,LITTLE BEAR: WHAT WILL LITTLE BEAR WEAR?,m,m,neutral
9,P67814,description,L196,612182,LITTLE BEAR,D1,childish,LITTLE BEAR: WHAT WILL LITTLE BEAR WEAR?,m,m,neutral
9,P67814,description,L196,612182,LITTLE BEAR,D2,demanding,LITTLE BEAR: WHAT WILL LITTLE BEAR WEAR?,m,m,neutral
10,P67814,activity,L196,625349,MOTHER BEAR,A1,help,LITTLE BEAR: WHAT WILL LITTLE BEAR WEAR?,s,f,neutral
10,P67814,activity,L196,625349,MOTHER BEAR,A2,search,LITTLE BEAR: WHAT WILL LITTLE BEAR WEAR?,s,f,neutral
11,P67814,description,L196,633170,MOTHER BEAR,D1,helpful,LITTLE BEAR: WHAT WILL LITTLE BEAR WEAR?,s,f,neutral
11,P67814,description,L196,633170,MOTHER BEAR,D2,calm,LITTLE BEAR: WHAT WILL LITTLE BEAR WEAR?,s,f,neutral
13,P67814,activity,M93,735827,ED,A1,spin,SHOW DOG,m,m,neutral
13,P67814,activity,M93,735827,ED,A2,celebrate,SHOW DOG,m,m,neutral
14,P67814,description,M93,741208,ED,D1,happy,SHOW DOG,m,m,neutral
14,P67814,description,M93,741208,ED,D2,dirty,SHOW DOG,m,m,neutral
15,P67814,activity,M93,767385,PRINCESS,A1,jump,SHOW DOG,m,f,neutral
15,P67814,activity,M93,767385,PRINCESS,A2,roll over,SHOW DOG,m,f,neutral
16,P67814,description,M93,784532,PRINCESS,D1,happy,SHOW DOG,m,f,neutral
16,P67814,description,M93,784532,PRINCESS,D2,clever,SHOW DOG,m,f,neutral
17,P67814,familiarity,NA,793571,NA,book_1,not familiar,NA,NA,NA,NA
17,P67814,familiarity,NA,793571,NA,book_2,not familiar,NA,NA,NA,NA
17,P67814,familiarity,NA,793571,NA,book_3,not familiar,NA,NA,NA,NA
18,P67814,participant_gender,NA,797235,NA,gender,Male,NA,NA,NA,NA
3,P67822,activity,L131,138476,ARTHUR,A1,try on noses,ARTHUR'S NOSE,m,m,male-biased
3,P67822,activity,L131,138476,ARTHUR,A2,sniffle,ARTHUR'S NOSE,m,m,male-biased
3,P67822,activity,L131,138476,ARTHUR,A3,play,ARTHUR'S NOSE,m,m,male-biased
4,P67822,description,L131,188863,ARTHUR,D1,worried,ARTHUR'S NOSE,m,m,male-biased
4,P67822,description,L131,188863,ARTHUR,D2,self-conscious,ARTHUR'S NOSE,m,m,male-biased
6,P67822,activity,L175,273857,PETER,A1,whistle,WHISTLE FOR WILLIE,m,m,male-biased
6,P67822,activity,L175,273857,PETER,A2,turn,WHISTLE FOR WILLIE,m,m,male-biased
6,P67822,activity,L175,273857,PETER,A3,walk,WHISTLE FOR WILLIE,m,m,male-biased
6,P67822,activity,L175,273857,PETER,A4,blow,WHISTLE FOR WILLIE,m,m,male-biased
6,P67822,activity,L175,273857,PETER,A5,jump,WHISTLE FOR WILLIE,m,m,male-biased
7,P67822,description,L175,314534,PETER,D1,determined,WHISTLE FOR WILLIE,m,m,male-biased
7,P67822,description,L175,314534,PETER,D2,jealous,WHISTLE FOR WILLIE,m,m,male-biased
9,P67822,activity,M64,444679,LULU,A1,swim,LADYBUG GIRL AT THE BEACH,m,f,female-biased
9,P67822,activity,M64,444679,LULU,A2,walk,LADYBUG GIRL AT THE BEACH,m,f,female-biased
9,P67822,activity,M64,444679,LULU,A3,build,LADYBUG GIRL AT THE BEACH,m,f,female-biased
9,P67822,activity,M64,444679,LULU,A4,flies a kite,LADYBUG GIRL AT THE BEACH,m,f,female-biased
9,P67822,activity,M64,444679,LULU,A5,digs,LADYBUG GIRL AT THE BEACH,m,f,female-biased
10,P67822,description,M64,460213,LULU,D1,scared,LADYBUG GIRL AT THE BEACH,m,f,female-biased
10,P67822,description,M64,460213,LULU,D2,excited,LADYBUG GIRL AT THE BEACH,m,f,female-biased
10,P67822,description,M64,460213,LULU,D3,aversive,LADYBUG GIRL AT THE BEACH,m,f,female-biased
11,P67822,familiarity,NA,471913,NA,book_1,familiar,NA,NA,NA,NA
11,P67822,familiarity,NA,471913,NA,book_2,familiar,NA,NA,NA,NA
11,P67822,familiarity,NA,471913,NA,book_3,familiar,NA,NA,NA,NA
12,P67822,participant_gender,NA,476567,NA,gender,female,NA,NA,NA,NA
3,P67848,activity,L169,250361,MILES,A1,play saxophone,MAMA DON'T ALLOW,m,m,neutral
3,P67848,activity,L169,250361,MILES,A2,strolled down Main Street,MAMA DON'T ALLOW,m,m,neutral
3,P67848,activity,L169,250361,MILES,A3,made a band,MAMA DON'T ALLOW,m,m,neutral
3,P67848,activity,L169,250361,MILES,A4,practiced,MAMA DON'T ALLOW,m,m,neutral
3,P67848,activity,L169,250361,MILES,A5,went outside,MAMA DON'T ALLOW,m,m,neutral
4,P67848,description,L169,338603,MILES,D1,hardworking,MAMA DON'T ALLOW,m,m,neutral
4,P67848,description,L169,338603,MILES,D2,dedicated,MAMA DON'T ALLOW,m,m,neutral
4,P67848,description,L169,338603,MILES,D3,loud,MAMA DON'T ALLOW,m,m,neutral
4,P67848,description,L169,338603,MILES,D4,young,MAMA DON'T ALLOW,m,m,neutral
4,P67848,description,L169,338603,MILES,D5,friendly,MAMA DON'T ALLOW,m,m,neutral
5,P67848,activity,L169,427113,MAMA,A1,talk to Miles,MAMA DON'T ALLOW,s,f,neutral
5,P67848,activity,L169,427113,MAMA,A2,send Miles outside,MAMA DON'T ALLOW,s,f,neutral
5,P67848,activity,L169,427113,MAMA,A3,rest,MAMA DON'T ALLOW,s,f,neutral
5,P67848,activity,L169,427113,MAMA,A4,complain,MAMA DON'T ALLOW,s,f,neutral
5,P67848,activity,L169,427113,MAMA,A5,relax,MAMA DON'T ALLOW,s,f,neutral
6,P67848,description,L169,594895,MAMA,D1,patient,MAMA DON'T ALLOW,s,f,neutral
6,P67848,description,L169,594895,MAMA,D2,polite,MAMA DON'T ALLOW,s,f,neutral
6,P67848,description,L169,594895,MAMA,D3,strict,MAMA DON'T ALLOW,s,f,neutral
6,P67848,description,L169,594895,MAMA,D4,annoyed,MAMA DON'T ALLOW,s,f,neutral
6,P67848,description,L169,594895,MAMA,D5,kind,MAMA DON'T ALLOW,s,f,neutral
8,P67848,activity,M31,777018,THE BUS DRIVER,A1,leave,DON'T LET THE PIGEON DRIVE THE BUS,m,m,neutral
8,P67848,activity,M31,777018,THE BUS DRIVER,A2,tell reader to not let the pigeon drive the bus,DON'T LET THE PIGEON DRIVE THE BUS,m,m,neutral
8,P67848,activity,M31,777018,THE BUS DRIVER,A3,come back,DON'T LET THE PIGEON DRIVE THE BUS,m,m,neutral
8,P67848,activity,M31,777018,THE BUS DRIVER,A4,thank the reader,DON'T LET THE PIGEON DRIVE THE BUS,m,m,neutral
8,P67848,activity,M31,777018,THE BUS DRIVER,A5,be thankful,DON'T LET THE PIGEON DRIVE THE BUS,m,m,neutral
9,P67848,description,M31,865941,THE BUS DRIVER,D1,cautious,DON'T LET THE PIGEON DRIVE THE BUS,m,m,neutral
9,P67848,description,M31,865941,THE BUS DRIVER,D2,warning,DON'T LET THE PIGEON DRIVE THE BUS,m,m,neutral
9,P67848,description,M31,865941,THE BUS DRIVER,D3,knowledgable,DON'T LET THE PIGEON DRIVE THE BUS,m,m,neutral
9,P67848,description,M31,865941,THE BUS DRIVER,D4,experienced,DON'T LET THE PIGEON DRIVE THE BUS,m,m,neutral
9,P67848,description,M31,865941,THE BUS DRIVER,D5,trusting,DON'T LET THE PIGEON DRIVE THE BUS,m,m,neutral
11,P67848,activity,M10,982313,PETER,A1,look out the window,THE SNOWY DAY,m,m,male-biased
11,P67848,activity,M10,982313,PETER,A2,wake up,THE SNOWY DAY,m,m,male-biased
11,P67848,activity,M10,982313,PETER,A3,walked with his toes pointed,THE SNOWY DAY,m,m,male-biased
11,P67848,activity,M10,982313,PETER,A4,made a smiling snowman,THE SNOWY DAY,m,m,male-biased
11,P67848,activity,M10,982313,PETER,A5,put snowball in his pocket,THE SNOWY DAY,m,m,male-biased
12,P67848,description,M10,1017701,PETER,D1,curious,THE SNOWY DAY,m,m,male-biased
12,P67848,description,M10,1017701,PETER,D2,gullible,THE SNOWY DAY,m,m,male-biased
12,P67848,description,M10,1017701,PETER,D3,young,THE SNOWY DAY,m,m,male-biased
12,P67848,description,M10,1017701,PETER,D4,adventurous,THE SNOWY DAY,m,m,male-biased
12,P67848,description,M10,1017701,PETER,D5,fun,THE SNOWY DAY,m,m,male-biased
13,P67848,familiarity,NA,1027454,NA,book_1,not familiar,NA,NA,NA,NA
13,P67848,familiarity,NA,1027454,NA,book_2,familiar,NA,NA,NA,NA
13,P67848,familiarity,NA,1027454,NA,book_3,not familiar,NA,NA,NA,NA
14,P67848,participant_gender,NA,1030289,NA,gender,F,NA,NA,NA,NA
3,P67857,activity,L198,234699,MORTIMER,A1,sing,MORTIMER,m,m,male-biased
3,P67857,activity,L198,234699,MORTIMER,A2,sleep,MORTIMER,m,m,male-biased
3,P67857,activity,L198,234699,MORTIMER,A3,shake head,MORTIMER,m,m,male-biased
3,P67857,activity,L198,234699,MORTIMER,A4,go upstairs,MORTIMER,m,m,male-biased
4,P67857,description,L198,263462,MORTIMER,D1,clever,MORTIMER,m,m,male-biased
4,P67857,description,L198,263462,MORTIMER,D2,loud,MORTIMER,m,m,male-biased
5,P67857,activity,L198,318034,MORTIMER'S MOTHER,A1,open the dooor,MORTIMER,s,f,male-biased
5,P67857,activity,L198,318034,MORTIMER'S MOTHER,A2,go upstairs,MORTIMER,s,f,male-biased
5,P67857,activity,L198,318034,MORTIMER'S MOTHER,A3,shut the door,MORTIMER,s,f,male-biased
5,P67857,activity,L198,318034,MORTIMER'S MOTHER,A4,throw,MORTIMER,s,f,male-biased
5,P67857,activity,L198,318034,MORTIMER'S MOTHER,A5,fight,MORTIMER,s,f,male-biased
6,P67857,description,L198,366865,MORTIMER'S MOTHER,D1,angry,MORTIMER,s,f,male-biased
6,P67857,description,L198,366865,MORTIMER'S MOTHER,D2,quick,MORTIMER,s,f,male-biased
7,P67857,activity,L198,464507,MORTIMER'S FATHER,A1,hear,MORTIMER,s,m,male-biased
7,P67857,activity,L198,464507,MORTIMER'S FATHER,A2,come up stairs ,MORTIMER,s,m,male-biased
7,P67857,activity,L198,464507,MORTIMER'S FATHER,A3,open door,MORTIMER,s,m,male-biased
7,P67857,activity,L198,464507,MORTIMER'S FATHER,A4,yell,MORTIMER,s,m,male-biased
7,P67857,activity,L198,464507,MORTIMER'S FATHER,A5,go back down,MORTIMER,s,m,male-biased
8,P67857,description,L198,643985,MORTIMER'S FATHER,D1,normal,MORTIMER,s,m,male-biased
8,P67857,description,L198,643985,MORTIMER'S FATHER,D2,quick,MORTIMER,s,m,male-biased
10,P67857,activity,L185,748785,GRANDMA,A1,see,GRANDMA WISHES,m,f,female-biased
10,P67857,activity,L185,748785,GRANDMA,A2,hear,GRANDMA WISHES,m,f,female-biased
10,P67857,activity,L185,748785,GRANDMA,A3,wish,GRANDMA WISHES,m,f,female-biased
10,P67857,activity,L185,748785,GRANDMA,A4,say,GRANDMA WISHES,m,f,female-biased
10,P67857,activity,L185,748785,GRANDMA,A5,hold,GRANDMA WISHES,m,f,female-biased
11,P67857,description,L185,770307,GRANDMA,D1,sweet,GRANDMA WISHES,m,f,female-biased
11,P67857,description,L185,770307,GRANDMA,D2,loving,GRANDMA WISHES,m,f,female-biased
11,P67857,description,L185,770307,GRANDMA,D3,caring,GRANDMA WISHES,m,f,female-biased
13,P67857,activity,L169,924810,MILES,A1,practice,MAMA DON'T ALLOW,m,m,neutral
13,P67857,activity,L169,924810,MILES,A2,stroll,MAMA DON'T ALLOW,m,m,neutral
13,P67857,activity,L169,924810,MILES,A3,play,MAMA DON'T ALLOW,m,m,neutral
14,P67857,description,L169,955283,MILES,D1,clever,MAMA DON'T ALLOW,m,m,neutral
14,P67857,description,L169,955283,MILES,D2,active,MAMA DON'T ALLOW,m,m,neutral
15,P67857,activity,L169,1040153,MAMA,A1,say,MAMA DON'T ALLOW,s,f,neutral
15,P67857,activity,L169,1040153,MAMA,A2,don't allow,MAMA DON'T ALLOW,s,f,neutral
16,P67857,description,L169,1053639,MAMA,D1,clever,MAMA DON'T ALLOW,s,f,neutral
16,P67857,description,L169,1053639,MAMA,D2,caring,MAMA DON'T ALLOW,s,f,neutral
17,P67857,familiarity,NA,1082715,NA,book_1,not familiar,NA,NA,NA,NA
17,P67857,familiarity,NA,1082715,NA,book_2,not familiar,NA,NA,NA,NA
17,P67857,familiarity,NA,1082715,NA,book_3,not familiar,NA,NA,NA,NA
18,P67857,participant_gender,NA,1089237,NA,gender,Female,NA,NA,NA,NA
3,P67875,activity,L242,156582,BIRD,A1,walk,GRUMPY BIRD,m,m,neutral
3,P67875,activity,L242,156582,BIRD,A2,fly,GRUMPY BIRD,m,m,neutral
3,P67875,activity,L242,156582,BIRD,A3,stood,GRUMPY BIRD,m,m,neutral
3,P67875,activity,L242,156582,BIRD,A4,jumped,GRUMPY BIRD,m,m,neutral
3,P67875,activity,L242,156582,BIRD,A5,shout,GRUMPY BIRD,m,m,neutral
4,P67875,description,L242,242019,BIRD,D1,grumpy,GRUMPY BIRD,m,m,neutral
4,P67875,description,L242,242019,BIRD,D2,fun,GRUMPY BIRD,m,m,neutral
6,P67875,activity,L167,444792,ROCKET,A1,play,HOW ROCKET LEARNED TO READ,m,m,neutral
6,P67875,activity,L167,444792,ROCKET,A2,chase,HOW ROCKET LEARNED TO READ,m,m,neutral
6,P67875,activity,L167,444792,ROCKET,A3,listen,HOW ROCKET LEARNED TO READ,m,m,neutral
6,P67875,activity,L167,444792,ROCKET,A4,sniff,HOW ROCKET LEARNED TO READ,m,m,neutral
6,P67875,activity,L167,444792,ROCKET,A5,shout,HOW ROCKET LEARNED TO READ,m,m,neutral
7,P67875,description,L167,494894,ROCKET,D1,good,HOW ROCKET LEARNED TO READ,m,m,neutral
7,P67875,description,L167,494894,ROCKET,D2,little,HOW ROCKET LEARNED TO READ,m,m,neutral
7,P67875,description,L167,494894,ROCKET,D3,crisp,HOW ROCKET LEARNED TO READ,m,m,neutral
7,P67875,description,L167,494894,ROCKET,D4,delicious,HOW ROCKET LEARNED TO READ,m,m,neutral
7,P67875,description,L167,494894,ROCKET,D5,earthly,HOW ROCKET LEARNED TO READ,m,m,neutral
9,P67875,activity,L103,638485,MISS NELSON/MISS SWAMP,A1,misbehaving,MISS NELSON IS MISSING,m,f,female-biased
9,P67875,activity,L103,638485,MISS NELSON/MISS SWAMP,A2,looking,MISS NELSON IS MISSING,m,f,female-biased
9,P67875,activity,L103,638485,MISS NELSON/MISS SWAMP,A3,whispered,MISS NELSON IS MISSING,m,f,female-biased
9,P67875,activity,L103,638485,MISS NELSON/MISS SWAMP,A4,giggled,MISS NELSON IS MISSING,m,f,female-biased
9,P67875,activity,L103,638485,MISS NELSON/MISS SWAMP,A5,squirmed,MISS NELSON IS MISSING,m,f,female-biased
10,P67875,description,L103,708753,MISS NELSON/MISS SWAMP,D1,ugly,MISS NELSON IS MISSING,m,f,female-biased
10,P67875,description,L103,708753,MISS NELSON/MISS SWAMP,D2,black,MISS NELSON IS MISSING,m,f,female-biased
10,P67875,description,L103,708753,MISS NELSON/MISS SWAMP,D3,sweet,MISS NELSON IS MISSING,m,f,female-biased
10,P67875,description,L103,708753,MISS NELSON/MISS SWAMP,D4,wicked,MISS NELSON IS MISSING,m,f,female-biased
10,P67875,description,L103,708753,MISS NELSON/MISS SWAMP,D5,angry,MISS NELSON IS MISSING,m,f,female-biased
11,P67875,familiarity,NA,731537,NA,book_1,not familiar,NA,NA,NA,NA
11,P67875,familiarity,NA,731537,NA,book_2,not familiar,NA,NA,NA,NA
11,P67875,familiarity,NA,731537,NA,book_3,not familiar,NA,NA,NA,NA
12,P67875,participant_gender,NA,735329,NA,gender,18,NA,NA,NA,NA
3,P67878,activity,L144,184230,LORIS,A1,eat,SLOW LORIS,m,m,neutral
3,P67878,activity,L144,184230,LORIS,A2,get up,SLOW LORIS,m,m,neutral
3,P67878,activity,L144,184230,LORIS,A3,hung around,SLOW LORIS,m,m,neutral
3,P67878,activity,L144,184230,LORIS,A4,sleep,SLOW LORIS,m,m,neutral
3,P67878,activity,L144,184230,LORIS,A5,does noise,SLOW LORIS,m,m,neutral
4,P67878,description,L144,322425,LORIS,D1,slow,SLOW LORIS,m,m,neutral
4,P67878,description,L144,322425,LORIS,D2,boring,SLOW LORIS,m,m,neutral
4,P67878,description,L144,322425,LORIS,D3,pretty,SLOW LORIS,m,m,neutral
4,P67878,description,L144,322425,LORIS,D4,loud,SLOW LORIS,m,m,neutral
4,P67878,description,L144,322425,LORIS,D5,tired,SLOW LORIS,m,m,neutral
6,P67878,activity,M47,350201,BIG SISTER,A1,walk,I'M A BIG SISTER,m,f,female-biased
6,P67878,activity,M47,350201,BIG SISTER,A2,talk,I'M A BIG SISTER,m,f,female-biased
6,P67878,activity,M47,350201,BIG SISTER,A3,play,I'M A BIG SISTER,m,f,female-biased
6,P67878,activity,M47,350201,BIG SISTER,A4,eat,I'M A BIG SISTER,m,f,female-biased
6,P67878,activity,M47,350201,BIG SISTER,A5,drink,I'M A BIG SISTER,m,f,female-biased
7,P67878,description,M47,412659,BIG SISTER,D1,big,I'M A BIG SISTER,m,f,female-biased
7,P67878,description,M47,412659,BIG SISTER,D2,little,I'M A BIG SISTER,m,f,female-biased
7,P67878,description,M47,412659,BIG SISTER,D3,warm,I'M A BIG SISTER,m,f,female-biased
7,P67878,description,M47,412659,BIG SISTER,D4,cozy,I'M A BIG SISTER,m,f,female-biased
7,P67878,description,M47,412659,BIG SISTER,D5,special,I'M A BIG SISTER,m,f,female-biased
9,P67878,activity,L213,438462,CRANE TRUCK,A1,work,"GOODNIGHT, GOODNIGHT, CONSTRUCTION SITE",s,m,male-biased
9,P67878,activity,L213,438462,CRANE TRUCK,A2,set,"GOODNIGHT, GOODNIGHT, CONSTRUCTION SITE",s,m,male-biased
9,P67878,activity,L213,438462,CRANE TRUCK,A3,go to bed,"GOODNIGHT, GOODNIGHT, CONSTRUCTION SITE",s,m,male-biased
10,P67878,description,L213,477799,CRANE TRUCK,D1,slowly,"GOODNIGHT, GOODNIGHT, CONSTRUCTION SITE",s,m,male-biased
10,P67878,description,L213,477799,CRANE TRUCK,D2,dizzy,"GOODNIGHT, GOODNIGHT, CONSTRUCTION SITE",s,m,male-biased
11,P67878,activity,L213,490200,CEMENT MIXER,A1,make,"GOODNIGHT, GOODNIGHT, CONSTRUCTION SITE",s,m,male-biased
11,P67878,activity,L213,490200,CEMENT MIXER,A2,build,"GOODNIGHT, GOODNIGHT, CONSTRUCTION SITE",s,m,male-biased
12,P67878,description,L213,517996,CEMENT MIXER,D1,happy,"GOODNIGHT, GOODNIGHT, CONSTRUCTION SITE",s,m,male-biased
12,P67878,description,L213,517996,CEMENT MIXER,D2,slow,"GOODNIGHT, GOODNIGHT, CONSTRUCTION SITE",s,m,male-biased
13,P67878,activity,L213,526900,DUMP TRUCK,A1,make,"GOODNIGHT, GOODNIGHT, CONSTRUCTION SITE",s,m,male-biased
13,P67878,activity,L213,526900,DUMP TRUCK,A2,build,"GOODNIGHT, GOODNIGHT, CONSTRUCTION SITE",s,m,male-biased
14,P67878,description,L213,541619,DUMP TRUCK,D1,happy,"GOODNIGHT, GOODNIGHT, CONSTRUCTION SITE",s,m,male-biased
14,P67878,description,L213,541619,DUMP TRUCK,D2,dizzy,"GOODNIGHT, GOODNIGHT, CONSTRUCTION SITE",s,m,male-biased
15,P67878,activity,L213,548419,BULLDOZER,A1,make ,"GOODNIGHT, GOODNIGHT, CONSTRUCTION SITE",s,m,male-biased
15,P67878,activity,L213,548419,BULLDOZER,A2,build,"GOODNIGHT, GOODNIGHT, CONSTRUCTION SITE",s,m,male-biased
16,P67878,description,L213,566679,BULLDOZER,D1,hard,"GOODNIGHT, GOODNIGHT, CONSTRUCTION SITE",s,m,male-biased
16,P67878,description,L213,566679,BULLDOZER,D2,tough,"GOODNIGHT, GOODNIGHT, CONSTRUCTION SITE",s,m,male-biased
17,P67878,activity,L213,584418,EXCAVATOR,A1,turn,"GOODNIGHT, GOODNIGHT, CONSTRUCTION SITE",s,m,male-biased
17,P67878,activity,L213,584418,EXCAVATOR,A2,stop,"GOODNIGHT, GOODNIGHT, CONSTRUCTION SITE",s,m,male-biased
18,P67878,description,L213,609830,EXCAVATOR,D1,happy ,"GOODNIGHT, GOODNIGHT, CONSTRUCTION SITE",s,m,male-biased
18,P67878,description,L213,609830,EXCAVATOR,D2,dizzy,"GOODNIGHT, GOODNIGHT, CONSTRUCTION SITE",s,m,male-biased
19,P67878,familiarity,NA,621487,NA,book_1,not familiar,NA,NA,NA,NA
19,P67878,familiarity,NA,621487,NA,book_2,not familiar,NA,NA,NA,NA
19,P67878,familiarity,NA,621487,NA,book_3,not familiar,NA,NA,NA,NA
20,P67878,participant_gender,NA,629257,NA,gender,male,NA,NA,NA,NA
3,P67881,activity,M93,224708,ED,A1,practice,SHOW DOG,m,m,neutral
3,P67881,activity,M93,224708,ED,A2,wag,SHOW DOG,m,m,neutral
3,P67881,activity,M93,224708,ED,A3,spin,SHOW DOG,m,m,neutral
3,P67881,activity,M93,224708,ED,A4,roll over,SHOW DOG,m,m,neutral
3,P67881,activity,M93,224708,ED,A5,sit down,SHOW DOG,m,m,neutral
4,P67881,description,M93,271029,ED,D1,scruffy,SHOW DOG,m,m,neutral
4,P67881,description,M93,271029,ED,D2,puffy,SHOW DOG,m,m,neutral
4,P67881,description,M93,271029,ED,D3,lean,SHOW DOG,m,m,neutral
4,P67881,description,M93,271029,ED,D4,tacky,SHOW DOG,m,m,neutral
4,P67881,description,M93,271029,ED,D5,best,SHOW DOG,m,m,neutral
5,P67881,activity,M93,305372,PRINCESS,A1,strut,SHOW DOG,m,f,neutral
5,P67881,activity,M93,305372,PRINCESS,A2,spin,SHOW DOG,m,f,neutral
5,P67881,activity,M93,305372,PRINCESS,A3,eats,SHOW DOG,m,f,neutral
5,P67881,activity,M93,305372,PRINCESS,A4,beg,SHOW DOG,m,f,neutral
5,P67881,activity,M93,305372,PRINCESS,A5,jump,SHOW DOG,m,f,neutral
6,P67881,description,M93,352797,PRINCESS,D1,Preppy,SHOW DOG,m,f,neutral
6,P67881,description,M93,352797,PRINCESS,D2,well groomed,SHOW DOG,m,f,neutral
6,P67881,description,M93,352797,PRINCESS,D3,neat,SHOW DOG,m,f,neutral
6,P67881,description,M93,352797,PRINCESS,D4,dapper,SHOW DOG,m,f,neutral
6,P67881,description,M93,352797,PRINCESS,D5,clean,SHOW DOG,m,f,neutral
8,P67881,activity,M69,484217,OLIVIA,A1,Riding,OLIVIA. . . AND THE MISSING TOY,m,f,female-biased
8,P67881,activity,M69,484217,OLIVIA,A2,Asks,OLIVIA. . . AND THE MISSING TOY,m,f,female-biased
8,P67881,activity,M69,484217,OLIVIA,A3,Whines,OLIVIA. . . AND THE MISSING TOY,m,f,female-biased
8,P67881,activity,M69,484217,OLIVIA,A4,Practicing,OLIVIA. . . AND THE MISSING TOY,m,f,female-biased
8,P67881,activity,M69,484217,OLIVIA,A5,Listened,OLIVIA. . . AND THE MISSING TOY,m,f,female-biased
9,P67881,description,M69,513012,OLIVIA,D1,annoying,OLIVIA. . . AND THE MISSING TOY,m,f,female-biased
9,P67881,description,M69,513012,OLIVIA,D2,demanding,OLIVIA. . . AND THE MISSING TOY,m,f,female-biased
9,P67881,description,M69,513012,OLIVIA,D3,childish,OLIVIA. . . AND THE MISSING TOY,m,f,female-biased
10,P67881,activity,M69,555893,OLIVIA'S MOTHER,A1,talks,OLIVIA. . . AND THE MISSING TOY,s,f,female-biased
10,P67881,activity,M69,555893,OLIVIA'S MOTHER,A2,makes,OLIVIA. . . AND THE MISSING TOY,s,f,female-biased
10,P67881,activity,M69,555893,OLIVIA'S MOTHER,A3,listens,OLIVIA. . . AND THE MISSING TOY,s,f,female-biased
11,P67881,description,M69,597863,OLIVIA'S MOTHER,D1,soft,OLIVIA. . . AND THE MISSING TOY,s,f,female-biased
11,P67881,description,M69,597863,OLIVIA'S MOTHER,D2,easy,OLIVIA. . . AND THE MISSING TOY,s,f,female-biased
11,P67881,description,M69,597863,OLIVIA'S MOTHER,D3,supportive,OLIVIA. . . AND THE MISSING TOY,s,f,female-biased
13,P67881,activity,L210,673652,BABY BELUGA,A1,swim,BABY BELUGA,m,n,female-biased
13,P67881,activity,L210,673652,BABY BELUGA,A2,curl,BABY BELUGA,m,n,female-biased
13,P67881,activity,L210,673652,BABY BELUGA,A3,dive,BABY BELUGA,m,n,female-biased
13,P67881,activity,L210,673652,BABY BELUGA,A4,splash,BABY BELUGA,m,n,female-biased
13,P67881,activity,L210,673652,BABY BELUGA,A5,play,BABY BELUGA,m,n,female-biased
14,P67881,description,L210,709313,BABY BELUGA,D1,happy,BABY BELUGA,m,n,female-biased
14,P67881,description,L210,709313,BABY BELUGA,D2,free,BABY BELUGA,m,n,female-biased
14,P67881,description,L210,709313,BABY BELUGA,D3,little,BABY BELUGA,m,n,female-biased
15,P67881,familiarity,NA,718229,NA,book_1,not familiar,NA,NA,NA,NA
15,P67881,familiarity,NA,718229,NA,book_2,not familiar,NA,NA,NA,NA
15,P67881,familiarity,NA,718229,NA,book_3,not familiar,NA,NA,NA,NA
16,P67881,participant_gender,NA,721987,NA,gender,Male,NA,NA,NA,NA
3,P67928,activity,M56,180801,LLAMA LLAMA RED PAJAMA/BABY LLAMA,A1,read,LLAMA LLAMA RED PAJAMA,m,m,female-biased
3,P67928,activity,M56,180801,LLAMA LLAMA RED PAJAMA/BABY LLAMA,A2,hum,LLAMA LLAMA RED PAJAMA,m,m,female-biased
3,P67928,activity,M56,180801,LLAMA LLAMA RED PAJAMA/BABY LLAMA,A3,fret,LLAMA LLAMA RED PAJAMA,m,m,female-biased
3,P67928,activity,M56,180801,LLAMA LLAMA RED PAJAMA/BABY LLAMA,A4,moan,LLAMA LLAMA RED PAJAMA,m,m,female-biased
3,P67928,activity,M56,180801,LLAMA LLAMA RED PAJAMA/BABY LLAMA,A5,stomp,LLAMA LLAMA RED PAJAMA,m,m,female-biased
4,P67928,description,M56,277758,LLAMA LLAMA RED PAJAMA/BABY LLAMA,D1,alone,LLAMA LLAMA RED PAJAMA,m,m,female-biased
4,P67928,description,M56,277758,LLAMA LLAMA RED PAJAMA/BABY LLAMA,D2,softly,LLAMA LLAMA RED PAJAMA,m,m,female-biased
4,P67928,description,M56,277758,LLAMA LLAMA RED PAJAMA/BABY LLAMA,D3,quiet,LLAMA LLAMA RED PAJAMA,m,m,female-biased
4,P67928,description,M56,277758,LLAMA LLAMA RED PAJAMA/BABY LLAMA,D4,loudly,LLAMA LLAMA RED PAJAMA,m,m,female-biased
4,P67928,description,M56,277758,LLAMA LLAMA RED PAJAMA/BABY LLAMA,D5,busy,LLAMA LLAMA RED PAJAMA,m,m,female-biased
5,P67928,activity,M56,356953,MAMA LLAMA,A1,kiss,LLAMA LLAMA RED PAJAMA,m,f,female-biased
5,P67928,activity,M56,356953,MAMA LLAMA,A2,go downstairs,LLAMA LLAMA RED PAJAMA,m,f,female-biased
5,P67928,activity,M56,356953,MAMA LLAMA,A3,hear the phone,LLAMA LLAMA RED PAJAMA,m,f,female-biased
5,P67928,activity,M56,356953,MAMA LLAMA,A4,run,LLAMA LLAMA RED PAJAMA,m,f,female-biased
5,P67928,activity,M56,356953,MAMA LLAMA,A5,love,LLAMA LLAMA RED PAJAMA,m,f,female-biased
6,P67928,description,M56,424310,MAMA LLAMA,D1,busy,LLAMA LLAMA RED PAJAMA,m,f,female-biased
6,P67928,description,M56,424310,MAMA LLAMA,D2,love her son,LLAMA LLAMA RED PAJAMA,m,f,female-biased
8,P67928,activity,L144,491274,LORIS,A1,live in a zoo,SLOW LORIS,m,m,neutral
8,P67928,activity,L144,491274,LORIS,A2,eat a satsuma,SLOW LORIS,m,m,neutral
8,P67928,activity,L144,491274,LORIS,A3,scratch his bottom,SLOW LORIS,m,m,neutral
8,P67928,activity,L144,491274,LORIS,A4,hang around,SLOW LORIS,m,m,neutral
8,P67928,activity,L144,491274,LORIS,A5,sleep,SLOW LORIS,m,m,neutral
9,P67928,description,L144,547270,LORIS,D1,slow,SLOW LORIS,m,m,neutral
9,P67928,description,L144,547270,LORIS,D2,boring,SLOW LORIS,m,m,neutral
9,P67928,description,L144,547270,LORIS,D3,fast,SLOW LORIS,m,m,neutral
9,P67928,description,L144,547270,LORIS,D4,wild,SLOW LORIS,m,m,neutral
11,P67928,activity,M73,760108,CHARLIE,A1,investigate,CHARLIE AND THE NEW BABY,m,m,female-biased
11,P67928,activity,M73,760108,CHARLIE,A2,observe the things around him,CHARLIE AND THE NEW BABY,m,m,female-biased
12,P67928,description,M73,805747,CHARLIE,D1,hungry,CHARLIE AND THE NEW BABY,m,m,female-biased
12,P67928,description,M73,805747,CHARLIE,D2,curious ,CHARLIE AND THE NEW BABY,m,m,female-biased
13,P67928,activity,M73,847847,MAMA,A1,rub Charlie's belly,CHARLIE AND THE NEW BABY,s,f,female-biased
13,P67928,activity,M73,847847,MAMA,A2,Feed Charlie,CHARLIE AND THE NEW BABY,s,f,female-biased
14,P67928,description,M73,927941,MAMA,D1,warm,CHARLIE AND THE NEW BABY,s,f,female-biased
14,P67928,description,M73,927941,MAMA,D2,loves Charlie,CHARLIE AND THE NEW BABY,s,f,female-biased
15,P67928,familiarity,NA,937138,NA,book_1,not familiar,NA,NA,NA,NA
15,P67928,familiarity,NA,937138,NA,book_2,not familiar,NA,NA,NA,NA
15,P67928,familiarity,NA,937138,NA,book_3,not familiar,NA,NA,NA,NA
16,P67928,participant_gender,NA,941078,NA,gender,Female,NA,NA,NA,NA
3,P67929,activity,M67,72228,PINKALICIOUS,A1,see,GOLDILICIOUS,m,f,female-biased
3,P67929,activity,M67,72228,PINKALICIOUS,A2,find,GOLDILICIOUS,m,f,female-biased
3,P67929,activity,M67,72228,PINKALICIOUS,A3,scream,GOLDILICIOUS,m,f,female-biased
3,P67929,activity,M67,72228,PINKALICIOUS,A4,wait,GOLDILICIOUS,m,f,female-biased
3,P67929,activity,M67,72228,PINKALICIOUS,A5,keep,GOLDILICIOUS,m,f,female-biased
4,P67929,description,M67,127667,PINKALICIOUS,D1,dropping,GOLDILICIOUS,m,f,female-biased
4,P67929,description,M67,127667,PINKALICIOUS,D2,graceful,GOLDILICIOUS,m,f,female-biased
4,P67929,description,M67,127667,PINKALICIOUS,D3,Wonderful,GOLDILICIOUS,m,f,female-biased
4,P67929,description,M67,127667,PINKALICIOUS,D4,supreme,GOLDILICIOUS,m,f,female-biased
4,P67929,description,M67,127667,PINKALICIOUS,D5,gracious,GOLDILICIOUS,m,f,female-biased
5,P67929,activity,M67,189505,PETER,A1,gallop,GOLDILICIOUS,s,m,female-biased
5,P67929,activity,M67,189505,PETER,A2,find,GOLDILICIOUS,s,m,female-biased
5,P67929,activity,M67,189505,PETER,A3,drink,GOLDILICIOUS,s,m,female-biased
5,P67929,activity,M67,189505,PETER,A4,sit,GOLDILICIOUS,s,m,female-biased
5,P67929,activity,M67,189505,PETER,A5,come,GOLDILICIOUS,s,m,female-biased
6,P67929,description,M67,325306,PETER,D1,whined,GOLDILICIOUS,s,m,female-biased
6,P67929,description,M67,325306,PETER,D2,special,GOLDILICIOUS,s,m,female-biased
6,P67929,description,M67,325306,PETER,D3,unique,GOLDILICIOUS,s,m,female-biased
6,P67929,description,M67,325306,PETER,D4,sweet,GOLDILICIOUS,s,m,female-biased
6,P67929,description,M67,325306,PETER,D5,bellowed,GOLDILICIOUS,s,m,female-biased
8,P67929,activity,M89,382309,LAURA,A1,lived,WINTER DAYS IN THE BIG WOODS,m,f,female-biased
8,P67929,activity,M89,382309,LAURA,A2,gather,WINTER DAYS IN THE BIG WOODS,m,f,female-biased
8,P67929,activity,M89,382309,LAURA,A3,thought,WINTER DAYS IN THE BIG WOODS,m,f,female-biased
8,P67929,activity,M89,382309,LAURA,A4,played,WINTER DAYS IN THE BIG WOODS,m,f,female-biased
8,P67929,activity,M89,382309,LAURA,A5,use,WINTER DAYS IN THE BIG WOODS,m,f,female-biased
9,P67929,description,M89,402132,LAURA,D1,pretty,WINTER DAYS IN THE BIG WOODS,m,f,female-biased
9,P67929,description,M89,402132,LAURA,D2,clever,WINTER DAYS IN THE BIG WOODS,m,f,female-biased
9,P67929,description,M89,402132,LAURA,D3,active,WINTER DAYS IN THE BIG WOODS,m,f,female-biased
9,P67929,description,M89,402132,LAURA,D4,cozy,WINTER DAYS IN THE BIG WOODS,m,f,female-biased
9,P67929,description,M89,402132,LAURA,D5,snug,WINTER DAYS IN THE BIG WOODS,m,f,female-biased
10,P67929,activity,M89,444206,MARY,A1,gather,WINTER DAYS IN THE BIG WOODS,s,f,female-biased
10,P67929,activity,M89,444206,MARY,A2,thought,WINTER DAYS IN THE BIG WOODS,s,f,female-biased
10,P67929,activity,M89,444206,MARY,A3,use,WINTER DAYS IN THE BIG WOODS,s,f,female-biased
10,P67929,activity,M89,444206,MARY,A4,wash,WINTER DAYS IN THE BIG WOODS,s,f,female-biased
10,P67929,activity,M89,444206,MARY,A5,work,WINTER DAYS IN THE BIG WOODS,s,f,female-biased
11,P67929,description,M89,464185,MARY,D1,loud,WINTER DAYS IN THE BIG WOODS,s,f,female-biased
11,P67929,description,M89,464185,MARY,D2,active,WINTER DAYS IN THE BIG WOODS,s,f,female-biased
11,P67929,description,M89,464185,MARY,D3,cozy,WINTER DAYS IN THE BIG WOODS,s,f,female-biased
11,P67929,description,M89,464185,MARY,D4,snug,WINTER DAYS IN THE BIG WOODS,s,f,female-biased
11,P67929,description,M89,464185,MARY,D5,pretty,WINTER DAYS IN THE BIG WOODS,s,f,female-biased
12,P67929,activity,M89,498247,MA,A1,churn,WINTER DAYS IN THE BIG WOODS,s,f,female-biased
12,P67929,activity,M89,498247,MA,A2,begin,WINTER DAYS IN THE BIG WOODS,s,f,female-biased
12,P67929,activity,M89,498247,MA,A3,work,WINTER DAYS IN THE BIG WOODS,s,f,female-biased
12,P67929,activity,M89,498247,MA,A4,see,WINTER DAYS IN THE BIG WOODS,s,f,female-biased
12,P67929,activity,M89,498247,MA,A5,becky,WINTER DAYS IN THE BIG WOODS,s,f,female-biased
13,P67929,description,M89,514839,MA,D1,loud,WINTER DAYS IN THE BIG WOODS,s,f,female-biased
13,P67929,description,M89,514839,MA,D2,pretty,WINTER DAYS IN THE BIG WOODS,s,f,female-biased
13,P67929,description,M89,514839,MA,D3,cozy,WINTER DAYS IN THE BIG WOODS,s,f,female-biased
13,P67929,description,M89,514839,MA,D4,snug,WINTER DAYS IN THE BIG WOODS,s,f,female-biased
13,P67929,description,M89,514839,MA,D5,clever,WINTER DAYS IN THE BIG WOODS,s,f,female-biased
14,P67929,activity,M89,561295,PA,A1,take,WINTER DAYS IN THE BIG WOODS,s,m,female-biased
14,P67929,activity,M89,561295,PA,A2,keep,WINTER DAYS IN THE BIG WOODS,s,m,female-biased
14,P67929,activity,M89,561295,PA,A3,come,WINTER DAYS IN THE BIG WOODS,s,m,female-biased
14,P67929,activity,M89,561295,PA,A4,play,WINTER DAYS IN THE BIG WOODS,s,m,female-biased
14,P67929,activity,M89,561295,PA,A5,eat,WINTER DAYS IN THE BIG WOODS,s,m,female-biased
15,P67929,description,M89,593379,PA,D1,comfortable,WINTER DAYS IN THE BIG WOODS,s,m,female-biased
15,P67929,description,M89,593379,PA,D2,happy,WINTER DAYS IN THE BIG WOODS,s,m,female-biased
15,P67929,description,M89,593379,PA,D3,cozy,WINTER DAYS IN THE BIG WOODS,s,m,female-biased
15,P67929,description,M89,593379,PA,D4,snug,WINTER DAYS IN THE BIG WOODS,s,m,female-biased
15,P67929,description,M89,593379,PA,D5,clever,WINTER DAYS IN THE BIG WOODS,s,m,female-biased
17,P67929,activity,M1,613406,GEORGE,A1,run,"BARK, GEORGE",m,m,male-biased
17,P67929,activity,M1,613406,GEORGE,A2,play,"BARK, GEORGE",m,m,male-biased
17,P67929,activity,M1,613406,GEORGE,A3,say,"BARK, GEORGE",m,m,male-biased
17,P67929,activity,M1,613406,GEORGE,A4,eat,"BARK, GEORGE",m,m,male-biased
17,P67929,activity,M1,613406,GEORGE,A5,have,"BARK, GEORGE",m,m,male-biased
18,P67929,description,M1,652147,GEORGE,D1,cozy,"BARK, GEORGE",m,m,male-biased
18,P67929,description,M1,652147,GEORGE,D2,clever,"BARK, GEORGE",m,m,male-biased
18,P67929,description,M1,652147,GEORGE,D3,pretty,"BARK, GEORGE",m,m,male-biased
18,P67929,description,M1,652147,GEORGE,D4,loud,"BARK, GEORGE",m,m,male-biased
18,P67929,description,M1,652147,GEORGE,D5,thrilled,"BARK, GEORGE",m,m,male-biased
19,P67929,activity,M1,669981,GEORGE'S MOTHER,A1,run,"BARK, GEORGE",s,f,male-biased
19,P67929,activity,M1,669981,GEORGE'S MOTHER,A2,play,"BARK, GEORGE",s,f,male-biased
19,P67929,activity,M1,669981,GEORGE'S MOTHER,A3,eat,"BARK, GEORGE",s,f,male-biased
19,P67929,activity,M1,669981,GEORGE'S MOTHER,A4,find,"BARK, GEORGE",s,f,male-biased
19,P67929,activity,M1,669981,GEORGE'S MOTHER,A5,have,"BARK, GEORGE",s,f,male-biased
20,P67929,description,M1,706710,GEORGE'S MOTHER,D1,loud,"BARK, GEORGE",s,f,male-biased
20,P67929,description,M1,706710,GEORGE'S MOTHER,D2,comfortable,"BARK, GEORGE",s,f,male-biased
20,P67929,description,M1,706710,GEORGE'S MOTHER,D3,clever,"BARK, GEORGE",s,f,male-biased
20,P67929,description,M1,706710,GEORGE'S MOTHER,D4,thrilled,"BARK, GEORGE",s,f,male-biased
20,P67929,description,M1,706710,GEORGE'S MOTHER,D5,latex,"BARK, GEORGE",s,f,male-biased
21,P67929,familiarity,NA,717149,NA,book_1,not familiar,NA,NA,NA,NA
21,P67929,familiarity,NA,717149,NA,book_2,familiar,NA,NA,NA,NA
21,P67929,familiarity,NA,717149,NA,book_3,familiar,NA,NA,NA,NA
22,P67929,participant_gender,NA,721033,NA,gender,woman,NA,NA,NA,NA
3,P67935,activity,L210,45431,BABY BELUGA,A1,run,BABY BELUGA,m,n,female-biased
3,P67935,activity,L210,45431,BABY BELUGA,A2,run,BABY BELUGA,m,n,female-biased
4,P67935,description,L210,60407,BABY BELUGA,D1,loud,BABY BELUGA,m,n,female-biased
4,P67935,description,L210,60407,BABY BELUGA,D2,clever,BABY BELUGA,m,n,female-biased
6,P67935,activity,M81,74261,MR. GILLY,A1,run,TRASHY TOWN,m,m,male-biased
6,P67935,activity,M81,74261,MR. GILLY,A2,play,TRASHY TOWN,m,m,male-biased
7,P67935,description,M81,90852,MR. GILLY,D1,loud,TRASHY TOWN,m,m,male-biased
7,P67935,description,M81,90852,MR. GILLY,D2,pretty,TRASHY TOWN,m,m,male-biased
9,P67935,activity,M69,110605,OLIVIA,A1,run,OLIVIA. . . AND THE MISSING TOY,m,f,female-biased
9,P67935,activity,M69,110605,OLIVIA,A2,play,OLIVIA. . . AND THE MISSING TOY,m,f,female-biased
10,P67935,description,M69,122252,OLIVIA,D1,loud,OLIVIA. . . AND THE MISSING TOY,m,f,female-biased
10,P67935,description,M69,122252,OLIVIA,D2,prettey,OLIVIA. . . AND THE MISSING TOY,m,f,female-biased
11,P67935,activity,M69,129301,OLIVIA'S MOTHER,A1,eat,OLIVIA. . . AND THE MISSING TOY,s,f,female-biased
11,P67935,activity,M69,129301,OLIVIA'S MOTHER,A2,play,OLIVIA. . . AND THE MISSING TOY,s,f,female-biased
12,P67935,description,M69,139836,OLIVIA'S MOTHER,D1,pretty,OLIVIA. . . AND THE MISSING TOY,s,f,female-biased
12,P67935,description,M69,139836,OLIVIA'S MOTHER,D2,loud,OLIVIA. . . AND THE MISSING TOY,s,f,female-biased
13,P67935,familiarity,NA,148653,NA,book_1,not familiar,NA,NA,NA,NA
13,P67935,familiarity,NA,148653,NA,book_2,familiar,NA,NA,NA,NA
13,P67935,familiarity,NA,148653,NA,book_3,familiar,NA,NA,NA,NA
14,P67935,participant_gender,NA,154324,NA,gender,female,NA,NA,NA,NA
3,P67936,activity,M81,117649,MR. GILLY,A1,climb,TRASHY TOWN,m,m,male-biased
3,P67936,activity,M81,117649,MR. GILLY,A2,drive,TRASHY TOWN,m,m,male-biased
3,P67936,activity,M81,117649,MR. GILLY,A3,empty trash cans,TRASHY TOWN,m,m,male-biased
3,P67936,activity,M81,117649,MR. GILLY,A4,stop the car ,TRASHY TOWN,m,m,male-biased
3,P67936,activity,M81,117649,MR. GILLY,A5,turn the keys,TRASHY TOWN,m,m,male-biased
4,P67936,description,M81,205965,MR. GILLY,D1,insistent ,TRASHY TOWN,m,m,male-biased
4,P67936,description,M81,205965,MR. GILLY,D2,dirty,TRASHY TOWN,m,m,male-biased
4,P67936,description,M81,205965,MR. GILLY,D3,industrious ,TRASHY TOWN,m,m,male-biased
4,P67936,description,M81,205965,MR. GILLY,D4,tough,TRASHY TOWN,m,m,male-biased
4,P67936,description,M81,205965,MR. GILLY,D5,socially responsible,TRASHY TOWN,m,m,male-biased
6,P67936,activity,M93,403005,ED,A1,spin in circles,SHOW DOG,m,m,neutral
6,P67936,activity,M93,403005,ED,A2,jump,SHOW DOG,m,m,neutral
6,P67936,activity,M93,403005,ED,A3,beg,SHOW DOG,m,m,neutral
6,P67936,activity,M93,403005,ED,A4,roll over,SHOW DOG,m,m,neutral
6,P67936,activity,M93,403005,ED,A5,sit up,SHOW DOG,m,m,neutral
7,P67936,description,M93,521617,ED,D1,uncombed,SHOW DOG,m,m,neutral
7,P67936,description,M93,521617,ED,D2,dirty,SHOW DOG,m,m,neutral
7,P67936,description,M93,521617,ED,D3,unshaven,SHOW DOG,m,m,neutral
7,P67936,description,M93,521617,ED,D4,clever ,SHOW DOG,m,m,neutral
7,P67936,description,M93,521617,ED,D5,best,SHOW DOG,m,m,neutral
8,P67936,activity,M93,637689,PRINCESS,A1,jump ,SHOW DOG,m,f,neutral
8,P67936,activity,M93,637689,PRINCESS,A2,sit up,SHOW DOG,m,f,neutral
8,P67936,activity,M93,637689,PRINCESS,A3,beg ,SHOW DOG,m,f,neutral
8,P67936,activity,M93,637689,PRINCESS,A4,roll over,SHOW DOG,m,f,neutral
8,P67936,activity,M93,637689,PRINCESS,A5,comb,SHOW DOG,m,f,neutral
9,P67936,description,M93,671355,PRINCESS,D1,graceful,SHOW DOG,m,f,neutral
9,P67936,description,M93,671355,PRINCESS,D2,beautiful,SHOW DOG,m,f,neutral
9,P67936,description,M93,671355,PRINCESS,D3,clever,SHOW DOG,m,f,neutral
9,P67936,description,M93,671355,PRINCESS,D4,lovely,SHOW DOG,m,f,neutral
9,P67936,description,M93,671355,PRINCESS,D5,gorgeous,SHOW DOG,m,f,neutral
11,P67936,activity,M63,820868,TRIXIE,A1,help,KNUFFLE BUNNY,m,f,female-biased
11,P67936,activity,M63,820868,TRIXIE,A2,shout,KNUFFLE BUNNY,m,f,female-biased
11,P67936,activity,M63,820868,TRIXIE,A3,speak,KNUFFLE BUNNY,m,f,female-biased
11,P67936,activity,M63,820868,TRIXIE,A4,run,KNUFFLE BUNNY,m,f,female-biased
11,P67936,activity,M63,820868,TRIXIE,A5,search,KNUFFLE BUNNY,m,f,female-biased
12,P67936,description,M63,869766,TRIXIE,D1,ruthless,KNUFFLE BUNNY,m,f,female-biased
12,P67936,description,M63,869766,TRIXIE,D2,uncareful,KNUFFLE BUNNY,m,f,female-biased
12,P67936,description,M63,869766,TRIXIE,D3,unhappy,KNUFFLE BUNNY,m,f,female-biased
12,P67936,description,M63,869766,TRIXIE,D4,boneless,KNUFFLE BUNNY,m,f,female-biased
12,P67936,description,M63,869766,TRIXIE,D5,fussy,KNUFFLE BUNNY,m,f,female-biased
13,P67936,activity,M63,967004,TRIXIE'S DADDY,A1,reply,KNUFFLE BUNNY,s,m,female-biased
13,P67936,activity,M63,967004,TRIXIE'S DADDY,A2,run,KNUFFLE BUNNY,s,m,female-biased
13,P67936,activity,M63,967004,TRIXIE'S DADDY,A3,search,KNUFFLE BUNNY,s,m,female-biased
13,P67936,activity,M63,967004,TRIXIE'S DADDY,A4,zoom,KNUFFLE BUNNY,s,m,female-biased
13,P67936,activity,M63,967004,TRIXIE'S DADDY,A5,listen,KNUFFLE BUNNY,s,m,female-biased
14,P67936,description,M63,1038510,TRIXIE'S DADDY,D1,unpatient,KNUFFLE BUNNY,s,m,female-biased
14,P67936,description,M63,1038510,TRIXIE'S DADDY,D2,spoffish,KNUFFLE BUNNY,s,m,female-biased
14,P67936,description,M63,1038510,TRIXIE'S DADDY,D3,unhappy,KNUFFLE BUNNY,s,m,female-biased
15,P67936,familiarity,NA,1051171,NA,book_1,not familiar,NA,NA,NA,NA
15,P67936,familiarity,NA,1051171,NA,book_2,not familiar,NA,NA,NA,NA
15,P67936,familiarity,NA,1051171,NA,book_3,not familiar,NA,NA,NA,NA
16,P67936,participant_gender,NA,1056091,NA,gender,female,NA,NA,NA,NA
3,P68094,activity,M69,153689,OLIVIA,A1,riding,OLIVIA. . . AND THE MISSING TOY,m,f,female-biased
3,P68094,activity,M69,153689,OLIVIA,A2,run,OLIVIA. . . AND THE MISSING TOY,m,f,female-biased
3,P68094,activity,M69,153689,OLIVIA,A3,cried,OLIVIA. . . AND THE MISSING TOY,m,f,female-biased
3,P68094,activity,M69,153689,OLIVIA,A4,woke up,OLIVIA. . . AND THE MISSING TOY,m,f,female-biased
3,P68094,activity,M69,153689,OLIVIA,A5,play,OLIVIA. . . AND THE MISSING TOY,m,f,female-biased
4,P68094,description,M69,190848,OLIVIA,D1,needy,OLIVIA. . . AND THE MISSING TOY,m,f,female-biased
4,P68094,description,M69,190848,OLIVIA,D2,loud,OLIVIA. . . AND THE MISSING TOY,m,f,female-biased
4,P68094,description,M69,190848,OLIVIA,D3,unique,OLIVIA. . . AND THE MISSING TOY,m,f,female-biased
4,P68094,description,M69,190848,OLIVIA,D4,nervous,OLIVIA. . . AND THE MISSING TOY,m,f,female-biased
4,P68094,description,M69,190848,OLIVIA,D5,impatient,OLIVIA. . . AND THE MISSING TOY,m,f,female-biased
5,P68094,activity,M69,242882,OLIVIA'S MOTHER,A1,sew,OLIVIA. . . AND THE MISSING TOY,s,f,female-biased
5,P68094,activity,M69,242882,OLIVIA'S MOTHER,A2,read,OLIVIA. . . AND THE MISSING TOY,s,f,female-biased
5,P68094,activity,M69,242882,OLIVIA'S MOTHER,A3,listened,OLIVIA. . . AND THE MISSING TOY,s,f,female-biased
5,P68094,activity,M69,242882,OLIVIA'S MOTHER,A4,talked,OLIVIA. . . AND THE MISSING TOY,s,f,female-biased
5,P68094,activity,M69,242882,OLIVIA'S MOTHER,A5,drove,OLIVIA. . . AND THE MISSING TOY,s,f,female-biased
6,P68094,description,M69,275589,OLIVIA'S MOTHER,D1,clever,OLIVIA. . . AND THE MISSING TOY,s,f,female-biased
6,P68094,description,M69,275589,OLIVIA'S MOTHER,D2,skeptical,OLIVIA. . . AND THE MISSING TOY,s,f,female-biased
6,P68094,description,M69,275589,OLIVIA'S MOTHER,D3,honest,OLIVIA. . . AND THE MISSING TOY,s,f,female-biased
6,P68094,description,M69,275589,OLIVIA'S MOTHER,D4,caring,OLIVIA. . . AND THE MISSING TOY,s,f,female-biased
6,P68094,description,M69,275589,OLIVIA'S MOTHER,D5,hardworking,OLIVIA. . . AND THE MISSING TOY,s,f,female-biased
8,P68094,activity,M68,377886,MAISY,A1,pithcing,MAISY GOES CAMPING,m,f,neutral
8,P68094,activity,M68,377886,MAISY,A2,sleeping,MAISY GOES CAMPING,m,f,neutral
8,P68094,activity,M68,377886,MAISY,A3,singing,MAISY GOES CAMPING,m,f,neutral
8,P68094,activity,M68,377886,MAISY,A4,pop out,MAISY GOES CAMPING,m,f,neutral
8,P68094,activity,M68,377886,MAISY,A5,made a decision,MAISY GOES CAMPING,m,f,neutral
9,P68094,description,M68,416489,MAISY,D1,daring,MAISY GOES CAMPING,m,f,neutral
9,P68094,description,M68,416489,MAISY,D2,adventurous,MAISY GOES CAMPING,m,f,neutral
9,P68094,description,M68,416489,MAISY,D3,hardworking,MAISY GOES CAMPING,m,f,neutral
9,P68094,description,M68,416489,MAISY,D4,careful,MAISY GOES CAMPING,m,f,neutral
9,P68094,description,M68,416489,MAISY,D5,relaxed,MAISY GOES CAMPING,m,f,neutral
11,P68094,activity,L213,516861,CRANE TRUCK,A1,raises,"GOODNIGHT, GOODNIGHT, CONSTRUCTION SITE",s,m,male-biased
11,P68094,activity,L213,516861,CRANE TRUCK,A2,lifting,"GOODNIGHT, GOODNIGHT, CONSTRUCTION SITE",s,m,male-biased
11,P68094,activity,L213,516861,CRANE TRUCK,A3,spins,"GOODNIGHT, GOODNIGHT, CONSTRUCTION SITE",s,m,male-biased
11,P68094,activity,L213,516861,CRANE TRUCK,A4,swings,"GOODNIGHT, GOODNIGHT, CONSTRUCTION SITE",s,m,male-biased
11,P68094,activity,L213,516861,CRANE TRUCK,A5,stretches,"GOODNIGHT, GOODNIGHT, CONSTRUCTION SITE",s,m,male-biased
12,P68094,description,L213,533409,CRANE TRUCK,D1,loud,"GOODNIGHT, GOODNIGHT, CONSTRUCTION SITE",s,m,male-biased
12,P68094,description,L213,533409,CRANE TRUCK,D2,useful,"GOODNIGHT, GOODNIGHT, CONSTRUCTION SITE",s,m,male-biased
13,P68094,activity,L213,559311,CEMENT MIXER,A1,mix,"GOODNIGHT, GOODNIGHT, CONSTRUCTION SITE",s,m,male-biased
13,P68094,activity,L213,559311,CEMENT MIXER,A2,spins,"GOODNIGHT, GOODNIGHT, CONSTRUCTION SITE",s,m,male-biased
13,P68094,activity,L213,559311,CEMENT MIXER,A3,pours,"GOODNIGHT, GOODNIGHT, CONSTRUCTION SITE",s,m,male-biased
14,P68094,description,L213,570601,CEMENT MIXER,D1,useful,"GOODNIGHT, GOODNIGHT, CONSTRUCTION SITE",s,m,male-biased
14,P68094,description,L213,570601,CEMENT MIXER,D2,tired,"GOODNIGHT, GOODNIGHT, CONSTRUCTION SITE",s,m,male-biased
15,P68094,activity,L213,621812,DUMP TRUCK,A1,hauls,"GOODNIGHT, GOODNIGHT, CONSTRUCTION SITE",s,m,male-biased
15,P68094,activity,L213,621812,DUMP TRUCK,A2,dumps,"GOODNIGHT, GOODNIGHT, CONSTRUCTION SITE",s,m,male-biased
15,P68094,activity,L213,621812,DUMP TRUCK,A3,moves,"GOODNIGHT, GOODNIGHT, CONSTRUCTION SITE",s,m,male-biased
15,P68094,activity,L213,621812,DUMP TRUCK,A4,carries,"GOODNIGHT, GOODNIGHT, CONSTRUCTION SITE",s,m,male-biased
16,P68094,description,L213,631779,DUMP TRUCK,D1,useful,"GOODNIGHT, GOODNIGHT, CONSTRUCTION SITE",s,m,male-biased
16,P68094,description,L213,631779,DUMP TRUCK,D2,tired,"GOODNIGHT, GOODNIGHT, CONSTRUCTION SITE",s,m,male-biased
17,P68094,activity,L213,654591,BULLDOZER,A1,moves,"GOODNIGHT, GOODNIGHT, CONSTRUCTION SITE",s,m,male-biased
17,P68094,activity,L213,654591,BULLDOZER,A2,pushes,"GOODNIGHT, GOODNIGHT, CONSTRUCTION SITE",s,m,male-biased
17,P68094,activity,L213,654591,BULLDOZER,A3,puffs,"GOODNIGHT, GOODNIGHT, CONSTRUCTION SITE",s,m,male-biased
18,P68094,description,L213,674669,BULLDOZER,D1,loud,"GOODNIGHT, GOODNIGHT, CONSTRUCTION SITE",s,m,male-biased
18,P68094,description,L213,674669,BULLDOZER,D2,disruptive,"GOODNIGHT, GOODNIGHT, CONSTRUCTION SITE",s,m,male-biased
18,P68094,description,L213,674669,BULLDOZER,D3,happy,"GOODNIGHT, GOODNIGHT, CONSTRUCTION SITE",s,m,male-biased
19,P68094,activity,L213,697918,EXCAVATOR,A1,scoops,"GOODNIGHT, GOODNIGHT, CONSTRUCTION SITE",s,m,male-biased
19,P68094,activity,L213,697918,EXCAVATOR,A2,shapes,"GOODNIGHT, GOODNIGHT, CONSTRUCTION SITE",s,m,male-biased
19,P68094,activity,L213,697918,EXCAVATOR,A3,digs,"GOODNIGHT, GOODNIGHT, CONSTRUCTION SITE",s,m,male-biased
20,P68094,description,L213,706476,EXCAVATOR,D1,loud,"GOODNIGHT, GOODNIGHT, CONSTRUCTION SITE",s,m,male-biased
20,P68094,description,L213,706476,EXCAVATOR,D2,creative,"GOODNIGHT, GOODNIGHT, CONSTRUCTION SITE",s,m,male-biased
21,P68094,familiarity,NA,717133,NA,book_1,familiar,NA,NA,NA,NA
21,P68094,familiarity,NA,717133,NA,book_2,familiar,NA,NA,NA,NA
21,P68094,familiarity,NA,717133,NA,book_3,familiar,NA,NA,NA,NA
22,P68094,participant_gender,NA,721182,NA,gender,male,NA,NA,NA,NA
3,P68103,activity,M56,423206,LLAMA LLAMA RED PAJAMA/BABY LLAMA,A1,reads ,LLAMA LLAMA RED PAJAMA,m,m,female-biased
3,P68103,activity,M56,423206,LLAMA LLAMA RED PAJAMA/BABY LLAMA,A2,waits,LLAMA LLAMA RED PAJAMA,m,m,female-biased
3,P68103,activity,M56,423206,LLAMA LLAMA RED PAJAMA/BABY LLAMA,A3,listens,LLAMA LLAMA RED PAJAMA,m,m,female-biased
3,P68103,activity,M56,423206,LLAMA LLAMA RED PAJAMA/BABY LLAMA,A4,runs,LLAMA LLAMA RED PAJAMA,m,m,female-biased
4,P68103,description,M56,464494,LLAMA LLAMA RED PAJAMA/BABY LLAMA,D1,whiney,LLAMA LLAMA RED PAJAMA,m,m,female-biased
4,P68103,description,M56,464494,LLAMA LLAMA RED PAJAMA/BABY LLAMA,D2,patient,LLAMA LLAMA RED PAJAMA,m,m,female-biased
5,P68103,activity,M56,572925,MAMA LLAMA,A1,kisses,LLAMA LLAMA RED PAJAMA,m,f,female-biased
5,P68103,activity,M56,572925,MAMA LLAMA,A2,listens,LLAMA LLAMA RED PAJAMA,m,f,female-biased
6,P68103,description,M56,609269,MAMA LLAMA,D1,busy,LLAMA LLAMA RED PAJAMA,m,f,female-biased
6,P68103,description,M56,609269,MAMA LLAMA,D2,caring,LLAMA LLAMA RED PAJAMA,m,f,female-biased
6,P68103,description,M56,609269,MAMA LLAMA,D3,kind,LLAMA LLAMA RED PAJAMA,m,f,female-biased
8,P68103,activity,M1,707695,GEORGE,A1,meows,"BARK, GEORGE",m,m,male-biased
8,P68103,activity,M1,707695,GEORGE,A2,quacks,"BARK, GEORGE",m,m,male-biased
8,P68103,activity,M1,707695,GEORGE,A3,oinks,"BARK, GEORGE",m,m,male-biased
8,P68103,activity,M1,707695,GEORGE,A4,moos,"BARK, GEORGE",m,m,male-biased
9,P68103,description,M1,737857,GEORGE,D1,confused,"BARK, GEORGE",m,m,male-biased
9,P68103,description,M1,737857,GEORGE,D2,atypical,"BARK, GEORGE",m,m,male-biased
10,P68103,activity,M1,750543,GEORGE'S MOTHER,A1,demands,"BARK, GEORGE",s,f,male-biased
10,P68103,activity,M1,750543,GEORGE'S MOTHER,A2,asks,"BARK, GEORGE",s,f,male-biased
11,P68103,description,M1,800661,GEORGE'S MOTHER,D1,upset,"BARK, GEORGE",s,f,male-biased
11,P68103,description,M1,800661,GEORGE'S MOTHER,D2,delighted,"BARK, GEORGE",s,f,male-biased
13,P68103,activity,M42,968963,MOUSE,A1,sleeps,IF YOU GIVE A MOUSE A COOKIE,m,m,male-biased
13,P68103,activity,M42,968963,MOUSE,A2,draws,IF YOU GIVE A MOUSE A COOKIE,m,m,male-biased
13,P68103,activity,M42,968963,MOUSE,A3,sweeps,IF YOU GIVE A MOUSE A COOKIE,m,m,male-biased
14,P68103,description,M42,1008986,MOUSE,D1,busy,IF YOU GIVE A MOUSE A COOKIE,m,m,male-biased
14,P68103,description,M42,1008986,MOUSE,D2,repeatative,IF YOU GIVE A MOUSE A COOKIE,m,m,male-biased
15,P68103,familiarity,NA,1024288,NA,book_1,not familiar,NA,NA,NA,NA
15,P68103,familiarity,NA,1024288,NA,book_2,not familiar,NA,NA,NA,NA
15,P68103,familiarity,NA,1024288,NA,book_3,not familiar,NA,NA,NA,NA
16,P68103,participant_gender,NA,1034018,NA,gender,male,NA,NA,NA,NA
3,P68112,activity,M23,193414,BOY,A1,Gather,THE GIVING TREE,m,m,neutral
3,P68112,activity,M23,193414,BOY,A2,Love,THE GIVING TREE,m,m,neutral
3,P68112,activity,M23,193414,BOY,A3,Sleep,THE GIVING TREE,m,m,neutral
3,P68112,activity,M23,193414,BOY,A4,Climb,THE GIVING TREE,m,m,neutral
3,P68112,activity,M23,193414,BOY,A5,Want,THE GIVING TREE,m,m,neutral
4,P68112,description,M23,222478,BOY,D1,Greedy,THE GIVING TREE,m,m,neutral
4,P68112,description,M23,222478,BOY,D2,Loving,THE GIVING TREE,m,m,neutral
4,P68112,description,M23,222478,BOY,D3,Confused,THE GIVING TREE,m,m,neutral
4,P68112,description,M23,222478,BOY,D4,Nostalgic ,THE GIVING TREE,m,m,neutral
4,P68112,description,M23,222478,BOY,D5,Pensive,THE GIVING TREE,m,m,neutral
5,P68112,activity,M23,260588,THE TREE,A1,Give,THE GIVING TREE,m,f,neutral
5,P68112,activity,M23,260588,THE TREE,A2,Love,THE GIVING TREE,m,f,neutral
5,P68112,activity,M23,260588,THE TREE,A3,Passive,THE GIVING TREE,m,f,neutral
5,P68112,activity,M23,260588,THE TREE,A4,Stay,THE GIVING TREE,m,f,neutral
5,P68112,activity,M23,260588,THE TREE,A5,Share,THE GIVING TREE,m,f,neutral
6,P68112,description,M23,375010,THE TREE,D1,Giving,THE GIVING TREE,m,f,neutral
6,P68112,description,M23,375010,THE TREE,D2,Loving ,THE GIVING TREE,m,f,neutral
6,P68112,description,M23,375010,THE TREE,D3,Aceepting ,THE GIVING TREE,m,f,neutral
8,P68112,activity,M53,440410,HARRY,A1,Play,HARRY THE DIRTY DOG,m,m,male-biased
8,P68112,activity,M53,440410,HARRY,A2,Run,HARRY THE DIRTY DOG,m,m,male-biased
8,P68112,activity,M53,440410,HARRY,A3,Jump,HARRY THE DIRTY DOG,m,m,male-biased
8,P68112,activity,M53,440410,HARRY,A4,Cry,HARRY THE DIRTY DOG,m,m,male-biased
9,P68112,description,M53,493799,HARRY,D1,Bark,HARRY THE DIRTY DOG,m,m,male-biased
9,P68112,description,M53,493799,HARRY,D2,Dance,HARRY THE DIRTY DOG,m,m,male-biased
9,P68112,description,M53,493799,HARRY,D3,Sang,HARRY THE DIRTY DOG,m,m,male-biased
11,P68112,activity,M67,708513,PINKALICIOUS,A1,Ask,GOLDILICIOUS,m,f,female-biased
11,P68112,activity,M67,708513,PINKALICIOUS,A2,Play ,GOLDILICIOUS,m,f,female-biased
11,P68112,activity,M67,708513,PINKALICIOUS,A3,Dance,GOLDILICIOUS,m,f,female-biased
11,P68112,activity,M67,708513,PINKALICIOUS,A4,Imagine,GOLDILICIOUS,m,f,female-biased
12,P68112,description,M67,741952,PINKALICIOUS,D1,Pink,GOLDILICIOUS,m,f,female-biased
12,P68112,description,M67,741952,PINKALICIOUS,D2,Greedy,GOLDILICIOUS,m,f,female-biased
13,P68112,activity,M67,754377,PETER,A1,Imagine,GOLDILICIOUS,s,m,female-biased
13,P68112,activity,M67,754377,PETER,A2,Play,GOLDILICIOUS,s,m,female-biased
13,P68112,activity,M67,754377,PETER,A3,Care,GOLDILICIOUS,s,m,female-biased
14,P68112,description,M67,800767,PETER,D1,Anxiois ,GOLDILICIOUS,s,m,female-biased
14,P68112,description,M67,800767,PETER,D2,Excitable ,GOLDILICIOUS,s,m,female-biased
15,P68112,familiarity,NA,809309,NA,book_1,familiar,NA,NA,NA,NA
15,P68112,familiarity,NA,809309,NA,book_2,not familiar,NA,NA,NA,NA
15,P68112,familiarity,NA,809309,NA,book_3,not familiar,NA,NA,NA,NA
16,P68112,participant_gender,NA,813632,NA,gender,Female,NA,NA,NA,NA
3,P68137,activity,M93,233964,ED,A1,wagging,SHOW DOG,m,m,neutral
3,P68137,activity,M93,233964,ED,A2,spin,SHOW DOG,m,m,neutral
3,P68137,activity,M93,233964,ED,A3,kiss,SHOW DOG,m,m,neutral
3,P68137,activity,M93,233964,ED,A4,sit up,SHOW DOG,m,m,neutral
3,P68137,activity,M93,233964,ED,A5,beg,SHOW DOG,m,m,neutral
4,P68137,description,M93,282458,ED,D1,lean,SHOW DOG,m,m,neutral
4,P68137,description,M93,282458,ED,D2,puffy,SHOW DOG,m,m,neutral
4,P68137,description,M93,282458,ED,D3,clean,SHOW DOG,m,m,neutral
4,P68137,description,M93,282458,ED,D4,scruffy,SHOW DOG,m,m,neutral
4,P68137,description,M93,282458,ED,D5,uncombed,SHOW DOG,m,m,neutral
5,P68137,activity,M93,336384,PRINCESS,A1,sit up,SHOW DOG,m,f,neutral
5,P68137,activity,M93,336384,PRINCESS,A2,beg,SHOW DOG,m,f,neutral
5,P68137,activity,M93,336384,PRINCESS,A3,roll over,SHOW DOG,m,f,neutral
5,P68137,activity,M93,336384,PRINCESS,A4,jump,SHOW DOG,m,f,neutral
5,P68137,activity,M93,336384,PRINCESS,A5,eats,SHOW DOG,m,f,neutral
6,P68137,description,M93,381390,PRINCESS,D1,strong,SHOW DOG,m,f,neutral
6,P68137,description,M93,381390,PRINCESS,D2,lean,SHOW DOG,m,f,neutral
6,P68137,description,M93,381390,PRINCESS,D3,groomed,SHOW DOG,m,f,neutral
6,P68137,description,M93,381390,PRINCESS,D4,puffy,SHOW DOG,m,f,neutral
6,P68137,description,M93,381390,PRINCESS,D5,clean,SHOW DOG,m,f,neutral
8,P68137,activity,M31,487566,THE BUS DRIVER,A1,leave,DON'T LET THE PIGEON DRIVE THE BUS,m,m,neutral
8,P68137,activity,M31,487566,THE BUS DRIVER,A2,instruct,DON'T LET THE PIGEON DRIVE THE BUS,m,m,neutral
8,P68137,activity,M31,487566,THE BUS DRIVER,A3,talks,DON'T LET THE PIGEON DRIVE THE BUS,m,m,neutral
8,P68137,activity,M31,487566,THE BUS DRIVER,A4,reminds,DON'T LET THE PIGEON DRIVE THE BUS,m,m,neutral
8,P68137,activity,M31,487566,THE BUS DRIVER,A5,returns,DON'T LET THE PIGEON DRIVE THE BUS,m,m,neutral
9,P68137,description,M31,561171,THE BUS DRIVER,D1,inquisitive,DON'T LET THE PIGEON DRIVE THE BUS,m,m,neutral
9,P68137,description,M31,561171,THE BUS DRIVER,D2,unfriendly,DON'T LET THE PIGEON DRIVE THE BUS,m,m,neutral
9,P68137,description,M31,561171,THE BUS DRIVER,D3,bossy,DON'T LET THE PIGEON DRIVE THE BUS,m,m,neutral
9,P68137,description,M31,561171,THE BUS DRIVER,D4,short spoken,DON'T LET THE PIGEON DRIVE THE BUS,m,m,neutral
9,P68137,description,M31,561171,THE BUS DRIVER,D5,harsh,DON'T LET THE PIGEON DRIVE THE BUS,m,m,neutral
11,P68137,activity,M10,736147,PETER,A1,walked,THE SNOWY DAY,m,m,male-biased
11,P68137,activity,M10,736147,PETER,A2,climbed,THE SNOWY DAY,m,m,male-biased
11,P68137,activity,M10,736147,PETER,A3,thought,THE SNOWY DAY,m,m,male-biased
11,P68137,activity,M10,736147,PETER,A4,slept,THE SNOWY DAY,m,m,male-biased
11,P68137,activity,M10,736147,PETER,A5,dreamed,THE SNOWY DAY,m,m,male-biased
12,P68137,description,M10,867375,PETER,D1,excited,THE SNOWY DAY,m,m,male-biased
12,P68137,description,M10,867375,PETER,D2,young,THE SNOWY DAY,m,m,male-biased
12,P68137,description,M10,867375,PETER,D3,independent,THE SNOWY DAY,m,m,male-biased
